// General information: 
//  MT Manager version: 2020.3.0 
//  XDA version: 2020.3.0 build 5439 rev 106958 built on 2020-11-10
// Device information: 
//  DeviceId: 00B46A02
//  ProductCode: MTW2-3A7G6
//  Firmware Version: 4.4.0
//  Hardware Version: 2.0.0
// Device settings: 
//  Filter Profile: human(46.1)
//  Option Flags: Orientation Smoother Disabled, Position/Velocity Smoother Disabled, Continuous Zero Rotation Update Disabled, AHS Disabled, ICC Disabled
// Coordinate system: ENU
PacketCounter,StatusWord,ClippingFlags,RSSI,Acc_X,Acc_Y,Acc_Z,FreeAcc_E,FreeAcc_N,FreeAcc_U,Gyr_X,Gyr_Y,Gyr_Z,Mag_X,Mag_Y,Mag_Z,VelInc_X,VelInc_Y,VelInc_Z,OriInc_q0,OriInc_q1,OriInc_q2,OriInc_q3,Quat_q0,Quat_q1,Quat_q2,Quat_q3,Roll,Pitch,Yaw,Mat[1][1],Mat[2][1],Mat[3][1],Mat[1][2],Mat[2][2],Mat[3][2],Mat[1][3],Mat[2][3],Mat[3][3]
04938,2,0,-58.0000,9.576315,-0.662752,-2.043832,0.028486,-0.024876,0.001632,-0.002976,0.010692,-0.007074,0.280170,0.666919,-0.583552,0.095762,-0.006631,-0.020443,1.000000,-0.000015,0.000053,-0.000035,0.999990,-0.004048,-0.001727,-0.000824,-0.463739,-0.198311,-0.093670,0.999993,-0.001635,0.003461,0.001663,0.999966,-0.008094,-0.003448,0.008099,0.999961
04939,2,0,-58.0000,9.624275,-0.700335,-2.110560,-0.035840,-0.012675,0.065074,-0.006219,0.013533,-0.006147,0.280450,0.669351,-0.586373,0.096241,-0.007007,-0.021112,1.000000,-0.000031,0.000068,-0.000031,0.999990,-0.004049,-0.001790,-0.000856,-0.463866,-0.205569,-0.097221,0.999992,-0.001697,0.003588,0.001726,0.999966,-0.008096,-0.003574,0.008102,0.999961
04940,2,0,-58.0000,9.548303,-0.712340,-2.085318,-0.035190,0.006825,-0.013464,-0.013792,0.017644,-0.004407,0.276435,0.667455,-0.590708,0.095481,-0.007127,-0.020861,1.000000,-0.000069,0.000088,-0.000022,0.999990,-0.004044,-0.001872,-0.000950,-0.463258,-0.214903,-0.108005,0.999991,-0.001885,0.003751,0.001915,0.999965,-0.008085,-0.003735,0.008092,0.999960
04941,2,0,-58.0000,9.592737,-0.677259,-2.124797,-0.050950,-0.039243,0.035658,-0.011803,0.014548,-0.013162,0.281653,0.659983,-0.587653,0.095925,-0.006780,-0.021255,1.000000,-0.000059,0.000073,-0.000066,0.999989,-0.004081,-0.001954,-0.001025,-0.467418,-0.224370,-0.116523,0.999990,-0.002034,0.003916,0.002066,0.999965,-0.008158,-0.003899,0.008166,0.999959
04942,2,0,-58.0000,9.571135,-0.692814,-2.102914,-0.042797,-0.016521,0.011098,-0.013844,0.016985,-0.011141,0.278016,0.676861,-0.590071,0.095709,-0.006935,-0.021037,1.000000,-0.000069,0.000085,-0.000056,0.999989,-0.004108,-0.002044,-0.001112,-0.470463,-0.234712,-0.126486,0.999989,-0.002208,0.004096,0.002241,0.999964,-0.008211,-0.004078,0.008220,0.999958
04943,2,0,-58.0000,9.617030,-0.674484,-2.096751,-0.022290,-0.030637,0.053270,-0.010485,0.012169,-0.011089,0.279804,0.682410,-0.589230,0.096169,-0.006751,-0.020973,1.000000,-0.000052,0.000061,-0.000055,0.999989,-0.004137,-0.002111,-0.001174,-0.473829,-0.242420,-0.133576,0.999988,-0.002331,0.004231,0.002366,0.999963,-0.008270,-0.004212,0.008280,0.999957
04944,2,0,-58.0000,9.596064,-0.698761,-2.052343,0.003995,0.008060,0.025237,-0.009284,0.011764,-0.009996,0.272366,0.672495,-0.584758,0.095959,-0.006993,-0.020529,1.000000,-0.000046,0.000059,-0.000050,0.999988,-0.004163,-0.002174,-0.001239,-0.476729,-0.249712,-0.140916,0.999987,-0.002459,0.004358,0.002496,0.999962,-0.008320,-0.004338,0.008331,0.999956
04945,2,0,-58.0000,9.555382,-0.655235,-2.059596,0.001502,-0.035332,-0.015987,-0.010337,0.025308,-0.007558,0.277833,0.665968,-0.582512,0.095551,-0.006557,-0.020608,1.000000,-0.000052,0.000127,-0.000038,0.999988,-0.004158,-0.002297,-0.001353,-0.476094,-0.263803,-0.153942,0.999986,-0.002687,0.004604,0.002725,0.999962,-0.008309,-0.004582,0.008322,0.999955
04946,2,0,-58.0000,9.596986,-0.696545,-2.048784,0.004362,0.007707,0.025237,-0.017633,0.015269,-0.010902,0.279212,0.670122,-0.591599,0.095968,-0.006972,-0.020495,1.000000,-0.000088,0.000076,-0.000055,0.999987,-0.004191,-0.002378,-0.001458,-0.479825,-0.273195,-0.165977,0.999984,-0.002897,0.004768,0.002937,0.999961,-0.008374,-0.004744,0.008388,0.999954
04947,2,0,-58.0000,9.598131,-0.703881,-2.024330,0.022688,0.023459,0.021763,-0.015102,0.020039,-0.006462,0.281783,0.661211,-0.586179,0.095979,-0.007043,-0.020252,1.000000,-0.000076,0.000100,-0.000032,0.999987,-0.004191,-0.002474,-0.001551,-0.479857,-0.284191,-0.176560,0.999983,-0.003082,0.004960,0.003123,0.999960,-0.008375,-0.004934,0.008390,0.999953
04948,2,0,-58.0000,9.597730,-0.694330,-2.046048,0.004739,0.007284,0.025237,-0.016753,0.006345,-0.008554,0.274845,0.669873,-0.583075,0.095976,-0.006949,-0.020463,1.000000,-0.000084,0.000032,-0.000043,0.999987,-0.004228,-0.002509,-0.001651,-0.484013,-0.288322,-0.188023,0.999982,-0.003282,0.005032,0.003324,0.999959,-0.008447,-0.005004,0.008464,0.999952
04949,2,0,-58.0000,9.589100,-0.672079,-2.037262,0.017745,-0.010042,0.013428,-0.014888,0.008527,-0.005787,0.282464,0.668217,-0.588842,0.095890,-0.006725,-0.020376,1.000000,-0.000074,0.000043,-0.000029,0.999986,-0.004245,-0.002549,-0.001731,-0.485954,-0.292958,-0.197069,0.999981,-0.003439,0.005113,0.003483,0.999958,-0.008481,-0.005084,0.008499,0.999951
04950,2,0,-58.0000,9.598756,-0.701099,-2.022330,0.023260,0.022835,0.021763,-0.009680,-0.001670,-0.004255,0.277596,0.668880,-0.580954,0.095988,-0.007014,-0.020222,1.000000,-0.000048,-0.000008,-0.000021,0.999986,-0.004268,-0.002540,-0.001798,-0.488558,-0.291890,-0.204779,0.999981,-0.003574,0.005094,0.003617,0.999957,-0.008527,-0.005064,0.008545,0.999951
04951,2,0,-58.0000,9.621451,-0.692210,-2.020260,0.033635,0.015684,0.042846,-0.008674,-0.005020,0.000343,0.282443,0.662384,-0.584828,0.096215,-0.006923,-0.020200,1.000000,-0.000043,-0.000025,0.000002,0.999986,-0.004275,-0.002505,-0.001850,-0.489310,-0.287922,-0.210823,0.999981,-0.003679,0.005025,0.003722,0.999957,-0.008540,-0.004994,0.008558,0.999951
04952,2,0,-58.0000,9.574381,-0.692052,-2.071574,-0.022773,-0.002556,0.007628,-0.005430,-0.007861,-0.000586,0.274329,0.668015,-0.584960,0.095745,-0.006921,-0.020712,1.000000,-0.000027,-0.000039,-0.000003,0.999986,-0.004287,-0.002460,-0.001899,-0.490687,-0.282774,-0.216354,0.999981,-0.003776,0.004935,0.003818,0.999956,-0.008564,-0.004903,0.008583,0.999951
04953,2,0,-58.0000,9.611606,-0.662405,-2.036337,0.028687,-0.017824,0.034509,-0.003873,-0.006646,0.004711,0.279843,0.666456,-0.576461,0.096117,-0.006622,-0.020360,1.000000,-0.000019,-0.000033,0.000024,0.999986,-0.004269,-0.002410,-0.001926,-0.488718,-0.277100,-0.219542,0.999981,-0.003832,0.004836,0.003873,0.999956,-0.008530,-0.004803,0.008548,0.999952
04954,2,0,-58.0000,9.605649,-0.705491,-2.078512,-0.025028,0.007173,0.040523,0.002985,-0.003150,0.008338,0.276709,0.668621,-0.581751,0.096057,-0.007051,-0.020784,1.000000,0.000015,-0.000016,0.000042,0.999986,-0.004223,-0.002371,-0.001944,-0.483437,-0.272636,-0.221659,0.999981,-0.003869,0.004758,0.003909,0.999957,-0.008437,-0.004726,0.008456,0.999953
04955,2,0,-58.0000,9.582080,-0.706223,-2.104019,-0.053104,-0.002000,0.022916,-0.001037,-0.000916,0.006619,0.275206,0.672613,-0.576894,0.095821,-0.007059,-0.021040,1.000000,-0.000005,-0.000005,0.000033,0.999987,-0.004188,-0.002344,-0.001973,-0.479367,-0.269512,-0.224982,0.999981,-0.003927,0.004704,0.003966,0.999957,-0.008366,-0.004671,0.008385,0.999954
04956,2,0,-58.0000,9.581251,-0.698301,-2.127170,-0.071058,-0.018166,0.026391,0.003828,-0.005177,0.005225,0.265679,0.677583,-0.578454,0.095813,-0.006980,-0.021269,1.000000,0.000019,-0.000026,0.000026,0.999987,-0.004158,-0.002301,-0.001983,-0.476009,-0.264585,-0.226164,0.999982,-0.003947,0.004618,0.003986,0.999958,-0.008308,-0.004585,0.008326,0.999955
04957,2,0,-58.0000,9.584012,-0.732695,-2.036212,0.001688,0.045607,0.012494,0.004979,-0.006240,-0.000420,0.278271,0.675090,-0.589628,0.095841,-0.007327,-0.020359,1.000000,0.000025,-0.000031,-0.000002,0.999987,-0.004161,-0.002262,-0.002028,-0.476274,-0.260222,-0.231294,0.999982,-0.004037,0.004542,0.004074,0.999957,-0.008312,-0.004508,0.008331,0.999955
04958,2,0,-58.0000,9.590538,-0.728311,-2.113602,-0.065345,0.014624,0.034732,0.004200,-0.006848,-0.003068,0.279574,0.670603,-0.583414,0.095906,-0.007284,-0.021133,1.000000,0.000021,-0.000034,-0.000015,0.999987,-0.004172,-0.002226,-0.002027,-0.477533,-0.256073,-0.231186,0.999982,-0.004035,0.004469,0.004072,0.999957,-0.008334,-0.004435,0.008352,0.999955
04959,2,0,-58.0000,9.597068,-0.694161,-2.049208,0.006890,0.005188,0.025237,0.004101,0.002688,-0.002763,0.272174,0.668206,-0.581206,0.095970,-0.006943,-0.020494,1.000000,0.000021,0.000013,-0.000014,0.999987,-0.004166,-0.002233,-0.002034,-0.476856,-0.256867,-0.232050,0.999982,-0.004050,0.004483,0.004087,0.999957,-0.008323,-0.004449,0.008341,0.999955
04960,2,0,-58.0000,9.593438,-0.621617,-2.021833,0.055612,-0.053309,0.010873,-0.002629,0.004770,-0.004134,0.272581,0.663128,-0.590320,0.095934,-0.006218,-0.020221,1.000000,-0.000013,0.000024,-0.000021,0.999987,-0.004169,-0.002253,-0.002070,-0.477235,-0.259194,-0.236102,0.999981,-0.004121,0.004524,0.004158,0.999957,-0.008329,-0.004489,0.008348,0.999955
04961,2,0,-58.0000,9.609762,-0.646600,-2.083523,-0.006100,-0.051244,0.041450,-0.005336,0.004619,-0.003786,0.281051,0.667549,-0.580999,0.096097,-0.006468,-0.020837,1.000000,-0.000027,0.000023,-0.000019,0.999986,-0.004173,-0.002273,-0.002123,-0.477614,-0.261513,-0.242222,0.999981,-0.004228,0.004564,0.004265,0.999956,-0.008336,-0.004529,0.008355,0.999955
04962,2,0,-58.0000,9.605514,-0.705766,-2.079043,-0.023514,0.005702,0.040528,-0.004558,0.005226,-0.001137,0.281464,0.667320,-0.579591,0.096055,-0.007059,-0.020793,1.000000,-0.000023,0.000026,-0.000006,0.999986,-0.004164,-0.002290,-0.002171,-0.476580,-0.263487,-0.247737,0.999980,-0.004324,0.004599,0.004362,0.999956,-0.008318,-0.004563,0.008338,0.999955
04963,2,0,-58.0000,9.585010,-0.739543,-2.012653,0.020997,0.060375,0.009025,0.000729,-0.000049,-0.004088,0.267446,0.668648,-0.582370,0.095850,-0.007397,-0.020127,1.000000,0.000004,-0.000000,-0.000020,0.999986,-0.004173,-0.002285,-0.002168,-0.477650,-0.262903,-0.247395,0.999980,-0.004318,0.004589,0.004356,0.999956,-0.008336,-0.004552,0.008356,0.999955
04964,2,0,-58.0000,9.575467,-0.709686,-2.027312,0.015827,0.027101,0.000683,0.006616,-0.000103,0.000396,0.280923,0.669839,-0.586983,0.095755,-0.007096,-0.020273,1.000000,0.000033,-0.000001,0.000002,0.999986,-0.004154,-0.002274,-0.002162,-0.475459,-0.261658,-0.246639,0.999980,-0.004305,0.004567,0.004342,0.999956,-0.008298,-0.004531,0.008318,0.999955
04965,2,0,-58.0000,9.607042,-0.722581,-2.033013,0.013382,0.037051,0.033580,0.006616,-0.000103,0.000396,0.273116,0.665584,-0.586184,0.096070,-0.007225,-0.020330,1.000000,0.000033,-0.000001,0.000002,0.999987,-0.004135,-0.002264,-0.002164,-0.473284,-0.260441,-0.246948,0.999980,-0.004310,0.004546,0.004347,0.999956,-0.008260,-0.004510,0.008280,0.999956
04966,2,0,-58.0000,9.588663,-0.671710,-2.039441,0.020992,-0.013337,0.013418,0.008124,0.000455,-0.001043,0.275476,0.663245,-0.582218,0.095887,-0.006717,-0.020395,1.000000,0.000041,0.000002,-0.000005,0.999987,-0.004120,-0.002258,-0.002149,-0.471544,-0.259780,-0.245198,0.999981,-0.004279,0.004534,0.004317,0.999957,-0.008230,-0.004499,0.008249,0.999956
04967,2,0,-57.0000,9.596722,-0.684581,-2.070666,-0.009762,-0.012408,0.028711,0.007266,-0.005074,0.000790,0.278679,0.667825,-0.579199,0.095968,-0.006845,-0.020704,1.000000,0.000036,-0.000025,0.000004,0.999987,-0.004105,-0.002224,-0.002132,-0.469896,-0.255817,-0.243229,0.999981,-0.004245,0.004465,0.004282,0.999957,-0.008201,-0.004430,0.008220,0.999956
04968,2,0,-58.0000,9.587034,-0.655264,-2.085821,-0.014943,-0.045680,0.020366,0.013575,-0.006141,0.003719,0.272247,0.673951,-0.583979,0.095871,-0.006549,-0.020856,1.000000,0.000068,-0.000031,0.000019,0.999987,-0.004074,-0.002179,-0.002092,-0.466284,-0.250633,-0.238744,0.999982,-0.004167,0.004374,0.004202,0.999958,-0.008138,-0.004340,0.008156,0.999957
04969,2,0,-58.0000,9.605270,-0.706963,-2.079762,-0.022163,0.004347,0.040531,0.013154,-0.005126,0.005276,0.278816,0.670399,-0.581235,0.096053,-0.007066,-0.020796,1.000000,0.000066,-0.000026,0.000026,0.999987,-0.004036,-0.002135,-0.002069,-0.461953,-0.245600,-0.236094,0.999982,-0.004121,0.004287,0.004155,0.999959,-0.008062,-0.004253,0.008080,0.999958
04970,2,0,-58.0000,9.569143,-0.754512,-2.070516,-0.036931,0.051154,0.006724,0.020728,-0.009233,0.003538,0.269217,0.666742,-0.586036,0.095693,-0.007541,-0.020702,1.000000,0.000104,-0.000046,0.000018,0.999988,-0.004002,-0.002076,-0.001993,-0.458143,-0.238762,-0.227465,0.999983,-0.003970,0.004167,0.004003,0.999960,-0.007996,-0.004135,0.008012,0.999959
04971,2,0,-58.0000,9.574777,-0.712861,-2.029457,0.017125,0.025714,0.000685,0.021394,-0.006645,0.005212,0.274355,0.669416,-0.585968,0.095749,-0.007124,-0.020292,1.000000,0.000107,-0.000033,0.000026,0.999988,-0.003956,-0.002026,-0.001927,-0.452909,-0.232995,-0.219927,0.999984,-0.003838,0.004067,0.003870,0.999961,-0.007905,-0.004036,0.007920,0.999960
04972,2,0,-58.0000,9.586962,-0.667223,-2.065549,0.003946,-0.030479,0.016889,0.020767,-0.016126,0.009003,0.280951,0.662118,-0.578972,0.095872,-0.006666,-0.020648,1.000000,0.000104,-0.000081,0.000045,0.999989,-0.003910,-0.001924,-0.001855,-0.447600,-0.221360,-0.211657,0.999986,-0.003694,0.003863,0.003724,0.999963,-0.007812,-0.003834,0.007826,0.999962
04973,2,0,-58.0000,9.604221,-0.710581,-2.083375,-0.021409,0.003556,0.040533,0.008682,-0.016988,0.002566,0.275258,0.664418,-0.584673,0.096044,-0.007104,-0.020826,1.000000,0.000043,-0.000085,0.000013,0.999989,-0.003907,-0.001830,-0.001824,-0.447367,-0.210512,-0.208242,0.999987,-0.003634,0.003674,0.003663,0.999963,-0.007808,-0.003646,0.007821,0.999963
04974,2,0,-57.0000,9.581067,-0.719702,-2.087430,-0.031385,0.010328,0.019458,0.009577,-0.018354,0.006192,0.273179,0.666386,-0.589205,0.095813,-0.007193,-0.020866,1.000000,0.000048,-0.000092,0.000031,0.999989,-0.003890,-0.001723,-0.001803,-0.445384,-0.198300,-0.205783,0.999988,-0.003592,0.003461,0.003618,0.999963,-0.007773,-0.003433,0.007786,0.999964
04975,2,0,-57.0000,9.590179,-0.750157,-2.074517,-0.025841,0.043158,0.027808,0.011621,-0.020787,0.004175,0.274689,0.670133,-0.586797,0.095904,-0.007498,-0.020736,1.000000,0.000058,-0.000104,0.000021,0.999990,-0.003881,-0.001610,-0.001769,-0.444452,-0.185292,-0.201995,0.999989,-0.003525,0.003234,0.003550,0.999964,-0.007757,-0.003206,0.007768,0.999965
04976,2,0,-58.0000,9.593390,-0.682775,-2.103281,-0.026253,-0.030150,0.032185,0.009886,-0.017388,0.003663,0.276519,0.672447,-0.578450,0.095936,-0.006825,-0.021025,1.000000,0.000049,-0.000087,0.000018,0.999990,-0.003873,-0.001513,-0.001743,-0.443559,-0.174107,-0.199095,0.999989,-0.003475,0.003039,0.003498,0.999964,-0.007741,-0.003012,0.007752,0.999965
04977,2,0,-57.0000,9.590145,-0.619584,-2.054763,0.040570,-0.072698,0.014310,0.004485,-0.010136,0.005632,0.280309,0.667234,-0.583584,0.095903,-0.006193,-0.020543,1.000000,0.000022,-0.000051,0.000028,0.999990,-0.003852,-0.001445,-0.001766,-0.441102,-0.166407,-0.201746,0.999990,-0.003521,0.002904,0.003543,0.999964,-0.007699,-0.002877,0.007709,0.999966
04978,2,0,-57.0000,9.617835,-0.700817,-2.034460,0.038749,0.010351,0.042835,0.006413,-0.010594,0.002636,0.274638,0.673730,-0.583278,0.096180,-0.007006,-0.020340,1.000000,0.000032,-0.000053,0.000013,0.999990,-0.003841,-0.001382,-0.001759,-0.439841,-0.159088,-0.200941,0.999990,-0.003507,0.002777,0.003528,0.999964,-0.007677,-0.002750,0.007686,0.999967
04979,2,0,-57.0000,9.602180,-0.713816,-2.091658,-0.020302,0.002381,0.040536,0.001186,-0.007959,-0.000178,0.277511,0.669652,-0.581184,0.096023,-0.007138,-0.020913,1.000000,0.000006,-0.000040,-0.000001,0.999990,-0.003845,-0.001335,-0.001784,-0.440342,-0.153708,-0.203817,0.999990,-0.003557,0.002683,0.003578,0.999964,-0.007685,-0.002655,0.007695,0.999967
04980,2,0,-57.0000,9.576324,-0.658672,-2.045108,0.036351,-0.033236,0.001581,0.007920,-0.010036,0.001196,0.275604,0.664937,-0.589263,0.095764,-0.006585,-0.020447,1.000000,0.000040,-0.000050,0.000006,0.999990,-0.003838,-0.001276,-0.001768,-0.439531,-0.146971,-0.202018,0.999990,-0.003526,0.002565,0.003545,0.999964,-0.007671,-0.002538,0.007680,0.999967
04981,2,0,-58.0000,9.574577,-0.642113,-2.091829,0.000212,-0.065337,0.008530,0.007615,-0.010997,0.003730,0.278719,0.670202,-0.585472,0.095747,-0.006419,-0.020913,1.000000,0.000038,-0.000055,0.000019,0.999990,-0.003821,-0.001208,-0.001757,-0.437558,-0.139226,-0.200853,0.999991,-0.003506,0.002430,0.003524,0.999965,-0.007637,-0.002403,0.007645,0.999968
04982,2,0,-57.0000,9.602306,-0.723373,-2.071313,-0.001589,0.017713,0.037062,0.001127,-0.005318,0.005582,0.272870,0.667614,-0.589635,0.096024,-0.007231,-0.020711,1.000000,0.000006,-0.000027,0.000028,0.999991,-0.003793,-0.001164,-0.001781,-0.434388,-0.134161,-0.203577,0.999991,-0.003553,0.002342,0.003571,0.999965,-0.007581,-0.002315,0.007590,0.999969
04983,2,0,-57.0000,9.565374,-0.762378,-2.084998,-0.034504,0.048579,0.006746,0.009599,-0.010790,0.007471,0.280398,0.659693,-0.586611,0.095655,-0.007619,-0.020845,1.000000,0.000048,-0.000054,0.000037,0.999991,-0.003755,-0.001091,-0.001772,-0.430123,-0.125830,-0.202594,0.999991,-0.003536,0.002196,0.003552,0.999966,-0.007507,-0.002170,0.007515,0.999969
04984,2,0,-57.0000,9.571031,-0.720700,-2.044306,0.019535,0.023094,0.000687,0.013815,-0.010080,0.005682,0.282029,0.671814,-0.586988,0.095712,-0.007203,-0.020439,1.000000,0.000069,-0.000050,0.000028,0.999991,-0.003721,-0.001025,-0.001732,-0.426224,-0.118139,-0.198048,0.999992,-0.003457,0.002062,0.003472,0.999966,-0.007439,-0.002036,0.007446,0.999970
04985,2,0,-57.0000,9.589142,-0.772518,-2.038609,0.012369,0.073050,0.020871,0.013816,-0.010079,0.005684,0.280039,0.669666,-0.588783,0.095893,-0.007721,-0.020382,1.000000,0.000069,-0.000050,0.000028,0.999991,-0.003686,-0.000957,-0.001674,-0.422149,-0.110357,-0.191457,0.999993,-0.003342,0.001926,0.003356,0.999967,-0.007368,-0.001901,0.007374,0.999971
04986,2,0,-58.0000,9.592559,-0.705350,-2.066429,0.011919,-0.000260,0.025234,0.016410,-0.007950,0.004357,0.279913,0.670320,-0.584745,0.095927,-0.007050,-0.020661,1.000000,0.000082,-0.000040,0.000022,0.999992,-0.003651,-0.000902,-0.001621,-0.418188,-0.104067,-0.185389,0.999993,-0.003236,0.001816,0.003249,0.999968,-0.007299,-0.001793,0.007305,0.999972
04987,2,0,-57.0000,9.569577,-0.714656,-2.069549,0.001953,0.006523,0.004162,0.016526,-0.009924,0.005338,0.281033,0.670461,-0.578489,0.095697,-0.007142,-0.020691,1.000000,0.000083,-0.000050,0.000027,0.999992,-0.003615,-0.000836,-0.001568,-0.414083,-0.096462,-0.179352,0.999994,-0.003130,0.001684,0.003142,0.999969,-0.007227,-0.001661,0.007232,0.999972
04988,2,0,-57.0000,9.599369,-0.711094,-2.121939,-0.036791,-0.015415,0.044015,0.013340,-0.009726,0.000506,0.277506,0.670029,-0.588700,0.095995,-0.007109,-0.021215,1.000000,0.000067,-0.000049,0.000003,0.999992,-0.003604,-0.000780,-0.001525,-0.412876,-0.090010,-0.174453,0.999994,-0.003045,0.001571,0.003056,0.999969,-0.007206,-0.001549,0.007211,0.999973
04989,2,0,-57.0000,9.587480,-0.766666,-2.064697,-0.005016,0.056334,0.024351,0.010327,-0.010838,0.003390,0.286171,0.674851,-0.580176,0.095876,-0.007664,-0.020642,1.000000,0.000052,-0.000054,0.000017,0.999992,-0.003587,-0.000713,-0.001506,-0.410914,-0.082306,-0.172236,0.999994,-0.003006,0.001437,0.003016,0.999970,-0.007172,-0.001415,0.007176,0.999973
04990,2,0,-57.0000,9.563691,-0.767292,-2.090907,-0.033156,0.047187,0.006757,0.022787,-0.011645,0.001534,0.288102,0.668175,-0.585382,0.095638,-0.007670,-0.020904,1.000000,0.000114,-0.000058,0.000008,0.999992,-0.003564,-0.000646,-0.001417,-0.408339,-0.074580,-0.162108,0.999995,-0.002829,0.001302,0.002839,0.999971,-0.007127,-0.001281,0.007130,0.999974
04991,2,0,-58.0000,9.569398,-0.725261,-2.050327,0.020933,0.021729,0.000687,0.025917,-0.012506,-0.000366,0.283971,0.669538,-0.591695,0.095695,-0.007250,-0.020498,1.000000,0.000130,-0.000063,-0.000002,0.999993,-0.003551,-0.000575,-0.001296,-0.406777,-0.066420,-0.148236,0.999996,-0.002587,0.001159,0.002595,0.999971,-0.007100,-0.001141,0.007103,0.999974
04992,2,0,-57.0000,9.590381,-0.700263,-2.094658,-0.005054,-0.017331,0.028707,0.024600,-0.010125,-0.002437,0.276653,0.666826,-0.588503,0.095905,-0.007001,-0.020943,1.000000,0.000123,-0.000051,-0.000012,0.999993,-0.003541,-0.000522,-0.001195,-0.405740,-0.060305,-0.136674,0.999997,-0.002385,0.001053,0.002393,0.999972,-0.007081,-0.001036,0.007084,0.999974
04993,2,0,-58.0000,9.604929,-0.679186,-2.062147,0.036210,-0.025749,0.034466,0.023515,-0.011694,-0.002547,0.278282,0.663346,-0.589631,0.096050,-0.006791,-0.020617,1.000000,0.000118,-0.000058,-0.000013,0.999993,-0.003535,-0.000462,-0.001095,-0.404989,-0.053412,-0.125328,0.999997,-0.002187,0.000932,0.002194,0.999973,-0.007068,-0.000917,0.007070,0.999975
04994,2,0,-58.0000,9.607518,-0.743183,-2.112809,-0.030201,0.016485,0.052377,0.020023,-0.012458,-0.004843,0.283593,0.667445,-0.584091,0.096076,-0.007432,-0.021123,1.000000,0.000100,-0.000062,-0.000024,0.999993,-0.003546,-0.000403,-0.001013,-0.406254,-0.046551,-0.115930,0.999998,-0.002023,0.000812,0.002029,0.999973,-0.007090,-0.000798,0.007092,0.999975
04995,2,0,-58.0000,9.554527,-0.755918,-2.064659,-0.001242,0.044981,-0.008546,0.023634,-0.013662,-0.001561,0.280426,0.671468,-0.589875,0.095547,-0.007557,-0.020641,1.000000,0.000118,-0.000068,-0.000008,0.999993,-0.003538,-0.000331,-0.000906,-0.405404,-0.038343,-0.103735,0.999998,-0.001811,0.000669,0.001815,0.999973,-0.007076,-0.000656,0.007077,0.999975
04996,2,0,-58.0000,9.553442,-0.747693,-2.088844,-0.019225,0.028850,-0.005069,0.026098,-0.017109,-0.005125,0.283259,0.666186,-0.583012,0.095536,-0.007477,-0.020881,1.000000,0.000130,-0.000086,-0.000026,0.999993,-0.003552,-0.000250,-0.000793,-0.406953,-0.029022,-0.090717,0.999999,-0.001583,0.000507,0.001587,0.999974,-0.007103,-0.000495,0.007103,0.999975
04997,2,0,-57.0000,9.600287,-0.747333,-2.039696,0.037636,0.046522,0.030117,0.029416,-0.015036,-0.010540,0.284478,0.669963,-0.585298,0.096004,-0.007475,-0.020391,1.000000,0.000147,-0.000075,-0.000053,0.999993,-0.003582,-0.000188,-0.000656,-0.410467,-0.021837,-0.075124,0.999999,-0.001311,0.000381,0.001314,0.999973,-0.007164,-0.000372,0.007164,0.999974
04998,2,0,-57.0000,9.566859,-0.717494,-2.081102,0.004070,0.004329,0.004163,0.026523,-0.018116,-0.006670,0.280189,0.675003,-0.580299,0.095670,-0.007175,-0.020803,1.000000,0.000133,-0.000091,-0.000033,0.999993,-0.003604,-0.000105,-0.000538,-0.412963,-0.012284,-0.061639,0.999999,-0.001076,0.000214,0.001077,0.999973,-0.007208,-0.000207,0.007208,0.999974
04999,2,0,-58.0000,9.611275,-0.691933,-2.100818,0.006430,-0.025746,0.049773,0.026408,-0.016139,-0.007648,0.282222,0.667525,-0.581770,0.096114,-0.006920,-0.021001,1.000000,0.000132,-0.000081,-0.000038,0.999993,-0.003629,-0.000032,-0.000431,-0.415858,-0.003859,-0.049358,1.000000,-0.000861,0.000067,0.000862,0.999973,-0.007258,-0.000061,0.007258,0.999974
05000,2,0,-57.0000,9.620629,-0.721459,-2.087180,0.012039,0.007111,0.058135,0.024250,-0.011730,-0.006617,0.281945,0.666895,-0.581707,0.096207,-0.007215,-0.020867,1.000000,0.000121,-0.000059,-0.000033,0.999993,-0.003642,0.000021,-0.000326,-0.417353,0.002272,-0.037416,1.000000,-0.000653,-0.000040,0.000653,0.999973,-0.007284,0.000044,0.007284,0.999973
05001,2,0,-57.0000,9.564473,-0.700272,-2.130573,-0.031680,-0.028058,0.011114,0.020454,-0.013455,-0.006376,0.283405,0.671901,-0.582043,0.095646,-0.007004,-0.021300,1.000000,0.000102,-0.000067,-0.000032,0.999993,-0.003662,0.000084,-0.000239,-0.419659,0.009468,-0.027386,1.000000,-0.000478,-0.000165,0.000477,0.999973,-0.007324,0.000169,0.007324,0.999973
05002,2,0,-58.0000,9.535427,-0.611177,-2.176075,-0.047781,-0.127421,-0.013978,0.025457,-0.012125,-0.005518,0.276298,0.663166,-0.586918,0.095355,-0.006112,-0.021756,1.000000,0.000127,-0.000061,-0.000028,0.999993,-0.003670,0.000140,-0.000129,-0.420499,0.016039,-0.014888,1.000000,-0.000260,-0.000280,0.000258,0.999973,-0.007339,0.000282,0.007339,0.999973
05003,2,0,-58.0000,9.580753,-0.594363,-2.172284,-0.027284,-0.141618,0.028152,0.019866,-0.007813,-0.000053,0.279351,0.672233,-0.585117,0.095808,-0.005942,-0.021720,1.000000,0.000099,-0.000039,-0.000000,0.999993,-0.003651,0.000187,-0.000062,-0.418345,0.021355,-0.007189,1.000000,-0.000125,-0.000373,0.000123,0.999973,-0.007301,0.000374,0.007301,0.999973
05004,2,0,-58.0000,9.563901,-0.700653,-2.133014,-0.031133,-0.028648,0.011114,0.004990,-0.006220,-0.000389,0.278805,0.663740,-0.579729,0.095640,-0.007006,-0.021327,1.000000,0.000025,-0.000031,-0.000002,0.999993,-0.003648,0.000225,-0.000060,-0.417980,0.025713,-0.006989,1.000000,-0.000122,-0.000449,0.000119,0.999973,-0.007295,0.000450,0.007295,0.999973
05005,2,0,-58.0000,9.586564,-0.692222,-2.131135,-0.020791,-0.035830,0.032179,0.004453,-0.003232,0.000178,0.282802,0.665587,-0.587166,0.095866,-0.006922,-0.021310,1.000000,0.000022,-0.000016,0.000001,0.999993,-0.003638,0.000250,-0.000075,-0.416893,0.028564,-0.008744,1.000000,-0.000153,-0.000499,0.000149,0.999974,-0.007276,0.000500,0.007276,0.999973
05006,2,0,-58.0000,9.582119,-0.752126,-2.126907,-0.038074,0.021161,0.031322,0.018491,-0.002790,0.003620,0.288606,0.670780,-0.589257,0.095822,-0.007518,-0.021268,1.000000,0.000092,-0.000014,0.000018,0.999993,-0.003595,0.000279,-0.000013,-0.412013,0.031948,-0.001639,1.000000,-0.000029,-0.000558,0.000025,0.999974,-0.007191,0.000558,0.007191,0.999974
05007,2,0,-58.0000,9.570476,-0.667392,-2.069513,0.041429,-0.038664,0.001541,0.014995,-0.003562,0.001324,0.281560,0.662291,-0.578361,0.095705,-0.006672,-0.020694,1.000000,0.000075,-0.000018,0.000007,0.999994,-0.003568,0.000308,0.000044,-0.408813,0.035345,0.004945,1.000000,0.000086,-0.000617,-0.000091,0.999975,-0.007135,0.000616,0.007135,0.999974
05008,2,0,-58.0000,9.593141,-0.659339,-2.067527,0.051775,-0.045869,0.022604,0.008068,-0.004429,0.003462,0.278947,0.667030,-0.584022,0.095932,-0.006591,-0.020673,1.000000,0.000040,-0.000022,0.000017,0.999994,-0.003540,0.000345,0.000056,-0.405686,0.039533,0.006320,1.000000,0.000110,-0.000690,-0.000115,0.999975,-0.007080,0.000689,0.007081,0.999975
05009,2,0,-58.0000,9.565078,-0.719521,-2.088576,0.006161,0.002213,0.004162,0.000602,-0.002309,0.006167,0.277897,0.670281,-0.580772,0.095651,-0.007192,-0.020885,1.000000,0.000003,-0.000012,0.000031,0.999994,-0.003506,0.000376,0.000027,-0.401732,0.043126,0.002911,1.000000,0.000051,-0.000753,-0.000056,0.999975,-0.007011,0.000752,0.007012,0.999975
05010,2,0,-58.0000,9.612413,-0.758821,-2.156745,-0.058064,0.014567,0.067711,0.005056,-0.005540,0.006347,0.280727,0.660236,-0.585434,0.096125,-0.007585,-0.021565,1.000000,0.000025,-0.000028,0.000032,0.999994,-0.003471,0.000423,0.000022,-0.397708,0.048481,0.002300,1.000000,0.000040,-0.000846,-0.000046,0.999976,-0.006941,0.000846,0.006941,0.999976
05011,2,0,-58.0000,9.589204,-0.728749,-2.041422,0.053051,0.026643,0.018274,0.001193,-0.007948,-0.000148,0.282953,0.663446,-0.588955,0.095893,-0.007287,-0.020410,1.000000,0.000006,-0.000040,-0.000001,0.999994,-0.003473,0.000469,-0.000001,-0.398030,0.053762,-0.000267,1.000000,-0.000005,-0.000938,-0.000002,0.999976,-0.006947,0.000938,0.006947,0.999975
05012,2,0,-58.0000,9.572591,-0.733796,-2.121136,-0.024206,0.002832,0.019483,0.009273,-0.004828,0.004557,0.279397,0.667296,-0.594398,0.095727,-0.007335,-0.021209,1.000000,0.000046,-0.000024,0.000023,0.999994,-0.003441,0.000509,0.000016,-0.394254,0.058389,0.001664,0.999999,0.000029,-0.001019,-0.000036,0.999976,-0.006881,0.001019,0.006881,0.999976
05013,2,0,-58.0000,9.586454,-0.704459,-2.111165,-0.001147,-0.021572,0.028700,0.001441,-0.004342,0.003065,0.285567,0.661046,-0.577030,0.095865,-0.007043,-0.021110,1.000000,0.000007,-0.000022,0.000015,0.999994,-0.003419,0.000544,-0.000001,-0.391804,0.062289,-0.000355,0.999999,-0.000006,-0.001087,-0.000001,0.999977,-0.006838,0.001087,0.006838,0.999976
05014,2,0,-58.0000,9.594298,-0.717656,-2.142565,-0.031879,-0.020552,0.044022,0.000236,-0.003942,0.001971,0.280982,0.666573,-0.575972,0.095943,-0.007176,-0.021424,1.000000,0.000001,-0.000020,0.000010,0.999994,-0.003407,0.000575,-0.000026,-0.390372,0.065884,-0.003190,0.999999,-0.000056,-0.001150,0.000048,0.999977,-0.006813,0.001150,0.006813,0.999976
05015,2,0,-58.0000,9.603810,-0.747580,-2.128057,-0.026207,0.012340,0.052394,-0.000183,-0.002926,0.003522,0.280790,0.670240,-0.589207,0.096039,-0.007474,-0.021279,1.000000,-0.000001,-0.000015,0.000018,0.999994,-0.003388,0.000606,-0.000047,-0.388209,0.069441,-0.005612,0.999999,-0.000098,-0.001212,0.000090,0.999977,-0.006775,0.001213,0.006775,0.999976
05016,2,0,-58.0000,9.572174,-0.735060,-2.122582,-0.023453,0.002020,0.019486,0.000236,-0.003942,0.001971,0.280471,0.666604,-0.581617,0.095722,-0.007350,-0.021224,1.000000,0.000001,-0.000020,0.000010,0.999994,-0.003375,0.000638,-0.000072,-0.386777,0.073036,-0.008447,0.999999,-0.000147,-0.001275,0.000139,0.999977,-0.006750,0.001276,0.006750,0.999976
05017,2,0,-58.0000,9.571262,-0.726762,-2.145851,-0.041458,-0.014088,0.022962,-0.002174,-0.003144,-0.000218,0.285207,0.665249,-0.581958,0.095713,-0.007268,-0.021457,1.000000,-0.000011,-0.000016,-0.000001,0.999994,-0.003374,0.000661,-0.000116,-0.386648,0.075722,-0.013549,0.999999,-0.000236,-0.001322,0.000228,0.999977,-0.006748,0.001323,0.006748,0.999976
05018,2,0,-58.0000,9.578106,-0.692339,-2.081710,0.030720,-0.023745,0.013373,0.000000,0.000000,0.000000,0.286550,0.671797,-0.582519,0.095781,-0.006923,-0.020817,1.000000,0.000000,0.000000,0.000000,0.999994,-0.003374,0.000661,-0.000116,-0.386648,0.075722,-0.013549,0.999999,-0.000236,-0.001322,0.000228,0.999977,-0.006748,0.001323,0.006748,0.999976
05019,2,0,-58.0000,9.604411,-0.756295,-2.106047,-0.007434,0.027689,0.048920,0.002829,-0.001815,0.000637,0.286934,0.662045,-0.570581,0.096044,-0.007562,-0.021060,1.000000,0.000014,-0.000009,0.000003,0.999994,-0.003362,0.000682,-0.000122,-0.385313,0.078099,-0.014235,0.999999,-0.000248,-0.001363,0.000239,0.999977,-0.006725,0.001365,0.006725,0.999976
05020,2,0,-58.0000,9.580819,-0.756621,-2.131165,-0.035596,0.018595,0.031337,0.006090,0.002901,0.000964,0.281883,0.666092,-0.578686,0.095808,-0.007565,-0.021313,1.000000,0.000030,0.000015,0.000005,0.999994,-0.003336,0.000680,-0.000120,-0.382296,0.077845,-0.013966,0.999999,-0.000244,-0.001359,0.000235,0.999978,-0.006672,0.001360,0.006672,0.999977
05021,2,0,-58.0000,9.580814,-0.756800,-2.131123,-0.035365,0.018451,0.031338,0.007164,-0.003075,-0.000168,0.284666,0.664335,-0.585842,0.095808,-0.007567,-0.021310,1.000000,0.000036,-0.000015,-0.000001,0.999994,-0.003327,0.000706,-0.000099,-0.381219,0.080826,-0.011598,0.999999,-0.000202,-0.001411,0.000193,0.999978,-0.006653,0.001412,0.006653,0.999977
05022,2,0,-58.0000,9.589584,-0.778030,-2.139255,-0.047904,0.035392,0.043190,0.011564,0.000562,-0.005481,0.287987,0.669798,-0.577338,0.095896,-0.007782,-0.021393,1.000000,0.000058,0.000003,-0.000027,0.999994,-0.003328,0.000703,-0.000062,-0.381318,0.080542,-0.007390,0.999999,-0.000129,-0.001406,0.000120,0.999978,-0.006655,0.001407,0.006655,0.999977
05023,2,0,-58.0000,9.555328,-0.701003,-2.083991,0.021404,-0.017421,-0.007691,0.010177,-0.001963,-0.003052,0.281470,0.672641,-0.586859,0.095553,-0.007010,-0.020839,1.000000,0.000051,-0.000010,-0.000015,0.999994,-0.003324,0.000718,-0.000024,-0.380957,0.082294,-0.003019,0.999999,-0.000053,-0.001436,0.000043,0.999978,-0.006649,0.001437,0.006649,0.999977
05024,2,0,-58.0000,9.585984,-0.705311,-2.113011,0.000839,-0.023409,0.028696,0.005292,-0.005264,-0.002921,0.283602,0.668877,-0.588603,0.095860,-0.007054,-0.021128,1.000000,0.000026,-0.000026,-0.000015,0.999994,-0.003331,0.000747,-0.000018,-0.381686,0.085629,-0.002379,0.999999,-0.000042,-0.001494,0.000032,0.999978,-0.006662,0.001495,0.006662,0.999977
05025,2,0,-58.0000,9.585910,-0.705159,-2.113399,0.001021,-0.023608,0.028696,0.006379,-0.003692,-0.002813,0.284556,0.670105,-0.583562,0.095859,-0.007052,-0.021132,1.000000,0.000032,-0.000018,-0.000014,0.999994,-0.003333,0.000769,-0.000018,-0.381898,0.088128,-0.002332,0.999999,-0.000041,-0.001538,0.000030,0.999978,-0.006665,0.001538,0.006665,0.999977
05026,2,0,-58.0000,9.577072,-0.683711,-2.105648,0.013927,-0.040944,0.016842,0.003668,-0.003848,-0.002464,0.284871,0.667957,-0.575366,0.095771,-0.006838,-0.021055,1.000000,0.000018,-0.000019,-0.000012,0.999994,-0.003336,0.000792,-0.000021,-0.382318,0.090790,-0.002714,0.999999,-0.000047,-0.001585,0.000037,0.999978,-0.006673,0.001585,0.006673,0.999976
05027,2,0,-58.0000,9.594524,-0.726098,-2.122338,-0.011298,-0.006818,0.040548,-0.003928,-0.007306,-0.001985,0.287791,0.664719,-0.589069,0.095946,-0.007262,-0.021220,1.000000,-0.000020,-0.000037,-0.000010,0.999994,-0.003355,0.000834,-0.000062,-0.384432,0.095555,-0.007417,0.999999,-0.000129,-0.001668,0.000118,0.999977,-0.006710,0.001669,0.006709,0.999976
05028,2,0,-58.0000,9.567322,-0.793887,-2.120462,-0.038684,0.057214,0.018665,-0.001205,0.000399,-0.001094,0.284513,0.661250,-0.587060,0.095673,-0.007940,-0.021205,1.000000,-0.000006,0.000002,-0.000005,0.999994,-0.003350,0.000840,-0.000092,-0.383930,0.096199,-0.010865,0.999999,-0.000190,-0.001679,0.000178,0.999978,-0.006701,0.001680,0.006700,0.999976
05029,2,0,-58.0000,9.594438,-0.725898,-2.122795,-0.010917,-0.007262,0.040549,0.007166,-0.003073,-0.000167,0.281538,0.668469,-0.586624,0.095945,-0.007258,-0.021227,1.000000,0.000036,-0.000015,-0.000001,0.999994,-0.003336,0.000864,-0.000060,-0.382256,0.098977,-0.007206,0.999999,-0.000126,-0.001727,0.000114,0.999978,-0.006672,0.001728,0.006671,0.999976
05030,2,0,-58.0000,9.563717,-0.721503,-2.094116,0.010016,-0.001671,0.004159,0.006928,0.000869,-0.002139,0.281616,0.670327,-0.586642,0.095637,-0.007215,-0.020942,1.000000,0.000035,0.000004,-0.000011,0.999994,-0.003326,0.000866,-0.000050,-0.381151,0.099188,-0.006006,0.999998,-0.000105,-0.001731,0.000093,0.999978,-0.006652,0.001732,0.006652,0.999976
05031,2,0,-57.0000,9.590939,-0.793713,-2.095200,-0.009757,0.065452,0.036251,0.008015,0.002441,-0.002030,0.277899,0.661709,-0.581274,0.095909,-0.007937,-0.020953,1.000000,0.000040,0.000012,-0.000010,0.999994,-0.003312,0.000860,-0.000044,-0.379521,0.098547,-0.005408,0.999999,-0.000094,-0.001720,0.000083,0.999978,-0.006624,0.001721,0.006624,0.999977
05032,2,0,-58.0000,9.557800,-0.764119,-2.134935,-0.043408,0.023336,0.010293,0.015363,0.002294,-0.005719,0.292949,0.665733,-0.584747,0.095578,-0.007642,-0.021351,1.000000,0.000077,0.000011,-0.000029,0.999994,-0.003307,0.000849,0.000010,-0.378908,0.097301,0.000877,0.999999,0.000015,-0.001698,-0.000027,0.999978,-0.006613,0.001698,0.006613,0.999977
05033,2,0,-57.0000,9.563113,-0.712933,-2.116064,-0.007609,-0.018177,0.007635,0.019949,0.004644,-0.003312,0.278857,0.668801,-0.583750,0.095631,-0.007129,-0.021164,1.000000,0.000100,0.000023,-0.000017,0.999994,-0.003281,0.000832,0.000099,-0.375927,0.095419,0.010977,0.999999,0.000192,-0.001665,-0.000203,0.999978,-0.006561,0.001664,0.006561,0.999977
05034,2,0,-58.0000,9.567559,-0.653499,-2.120222,0.009970,-0.075585,0.008452,0.009641,0.001028,-0.002485,0.283154,0.666902,-0.585744,0.095675,-0.006535,-0.021203,1.000000,0.000048,0.000005,-0.000012,0.999994,-0.003269,0.000833,0.000123,-0.374619,0.095485,0.013727,0.999999,0.000240,-0.001667,-0.000250,0.999979,-0.006538,0.001665,0.006539,0.999977
05035,2,0,-58.0000,9.585975,-0.704075,-2.113465,0.002921,-0.025597,0.028690,-0.003865,-0.002413,-0.006494,0.277750,0.660506,-0.576980,0.095860,-0.007044,-0.021133,1.000000,-0.000019,-0.000012,-0.000032,0.999994,-0.003297,0.000842,0.000077,-0.377850,0.096509,0.008486,0.999999,0.000148,-0.001684,-0.000159,0.999978,-0.006595,0.001683,0.006595,0.999977
05036,2,0,-58.0000,9.580782,-0.754793,-2.131977,-0.032480,0.015519,0.031353,-0.001206,0.000398,-0.001095,0.287868,0.664861,-0.587333,0.095808,-0.007549,-0.021320,1.000000,-0.000006,0.000002,-0.000005,0.999994,-0.003293,0.000848,0.000047,-0.377349,0.097154,0.005038,0.999999,0.000088,-0.001696,-0.000099,0.999978,-0.006586,0.001695,0.006586,0.999977
05037,2,0,-58.0000,9.559733,-0.779754,-2.088288,-0.006050,0.054140,0.003345,0.001807,0.001509,-0.003979,0.286149,0.666058,-0.590444,0.095597,-0.007799,-0.020884,1.000000,0.000009,0.000008,-0.000020,0.999994,-0.003296,0.000844,0.000042,-0.377687,0.096687,0.004472,0.999999,0.000078,-0.001687,-0.000089,0.999978,-0.006592,0.001687,0.006592,0.999977
05038,2,0,-57.0000,9.595708,-0.732547,-2.098489,0.008976,0.006840,0.037072,0.009575,0.000346,-0.009217,0.287289,0.665633,-0.589705,0.095957,-0.007329,-0.020985,1.000000,0.000048,0.000002,-0.000046,0.999994,-0.003316,0.000835,0.000073,-0.380036,0.095756,0.008034,0.999999,0.000140,-0.001671,-0.000151,0.999978,-0.006633,0.001670,0.006633,0.999977
05039,2,0,-58.0000,9.585323,-0.694011,-2.136129,-0.014522,-0.042338,0.032165,0.003313,0.002065,-0.005421,0.285855,0.671223,-0.581857,0.095853,-0.006942,-0.021362,1.000000,0.000017,0.000010,-0.000027,0.999994,-0.003322,0.000826,0.000084,-0.380625,0.094691,0.009270,0.999999,0.000162,-0.001653,-0.000173,0.999978,-0.006643,0.001652,0.006643,0.999977
05040,2,0,-58.0000,9.596700,-0.739779,-2.075235,0.027557,0.022298,0.033595,0.001021,0.000890,-0.006624,0.288498,0.663374,-0.582467,0.095967,-0.007401,-0.020753,1.000000,0.000005,0.000004,-0.000033,0.999994,-0.003339,0.000820,0.000070,-0.382623,0.093962,0.007718,0.999999,0.000135,-0.001640,-0.000146,0.999978,-0.006678,0.001639,0.006678,0.999976
05041,2,0,-58.0000,9.570658,-0.714454,-2.169077,-0.055192,-0.034432,0.026449,0.003313,0.002065,-0.005421,0.295461,0.675059,-0.588333,0.095706,-0.007147,-0.021692,1.000000,0.000017,0.000010,-0.000027,0.999994,-0.003347,0.000812,0.000076,-0.383576,0.093044,0.008438,0.999999,0.000147,-0.001624,-0.000158,0.999978,-0.006695,0.001623,0.006695,0.999976
05042,2,0,-58.0000,9.567263,-0.781702,-2.141311,-0.054180,0.038486,0.022168,0.006326,0.003178,-0.008305,0.282906,0.668303,-0.587942,0.095672,-0.007820,-0.021415,1.000000,0.000032,0.000016,-0.000042,0.999994,-0.003363,0.000792,0.000090,-0.385310,0.090768,0.009956,0.999999,0.000174,-0.001584,-0.000184,0.999977,-0.006725,0.001583,0.006725,0.999976
05043,2,0,-58.0000,9.571740,-0.721655,-2.145444,-0.036594,-0.018923,0.022973,0.008618,0.004353,-0.007101,0.281817,0.662865,-0.580925,0.095717,-0.007219,-0.021457,1.000000,0.000043,0.000022,-0.000036,0.999994,-0.003368,0.000770,0.000121,-0.385913,0.088271,0.013559,0.999999,0.000237,-0.001541,-0.000247,0.999977,-0.006735,0.001539,0.006736,0.999976
05044,2,0,-58.0000,9.586668,-0.699910,-2.111704,0.004662,-0.027406,0.028685,0.011815,0.004178,-0.002266,0.273259,0.670669,-0.583962,0.095866,-0.006999,-0.021119,1.000000,0.000059,0.000021,-0.000011,0.999994,-0.003348,0.000756,0.000154,-0.383586,0.086701,0.017364,0.999999,0.000303,-0.001513,-0.000313,0.999978,-0.006695,0.001511,0.006695,0.999976
05045,2,0,-58.0000,9.601597,-0.678034,-2.077983,0.045902,-0.035885,0.034394,0.010545,0.003893,-0.010092,0.280097,0.659457,-0.579025,0.096015,-0.006784,-0.020782,1.000000,0.000053,0.000019,-0.000050,0.999994,-0.003365,0.000729,0.000171,-0.385620,0.083611,0.019351,0.999999,0.000338,-0.001459,-0.000348,0.999977,-0.006730,0.001457,0.006731,0.999976
05046,2,0,-58.0000,9.620881,-0.596343,-2.048773,0.104518,-0.101599,0.040901,0.003076,0.006007,-0.007393,0.289164,0.665892,-0.584625,0.096208,-0.005967,-0.020491,1.000000,0.000015,0.000030,-0.000037,0.999994,-0.003375,0.000697,0.000167,-0.386740,0.079990,0.018825,0.999999,0.000329,-0.001396,-0.000338,0.999977,-0.006750,0.001394,0.006750,0.999976
05047,2,0,-58.0000,9.585211,-0.642335,-2.037658,0.089895,-0.054690,0.007182,-0.008430,0.010330,-0.006430,0.275268,0.671077,-0.586179,0.095851,-0.006427,-0.020381,1.000000,-0.000042,0.000052,-0.000032,0.999994,-0.003386,0.000648,0.000116,-0.387959,0.074312,0.013015,0.999999,0.000227,-0.001297,-0.000236,0.999977,-0.006771,0.001295,0.006771,0.999976
05048,2,0,-58.0000,9.600689,-0.659082,-2.121101,0.010063,-0.068271,0.041344,-0.023844,0.022442,-0.004978,0.283372,0.659337,-0.594063,0.096004,-0.006596,-0.021221,1.000000,-0.000119,0.000112,-0.000025,0.999994,-0.003386,0.000543,-0.000029,-0.388055,0.062268,-0.003524,0.999999,-0.000062,-0.001087,0.000054,0.999977,-0.006773,0.001087,0.006773,0.999976
05049,2,0,-58.0000,9.563788,-0.687914,-2.154189,-0.041017,-0.053178,0.014585,-0.024435,0.032303,-0.009904,0.284001,0.668217,-0.582181,0.095634,-0.006887,-0.021556,1.000000,-0.000122,0.000162,-0.000050,0.999994,-0.003391,0.000383,-0.000181,-0.388563,0.043782,-0.020846,1.000000,-0.000364,-0.000764,0.000359,0.999977,-0.006782,0.000767,0.006781,0.999977
05050,2,0,-58.0000,9.560996,-0.754435,-2.124039,-0.039977,0.019739,0.010315,-0.015940,0.026870,-0.007980,0.285554,0.662336,-0.583040,0.095607,-0.007550,-0.021253,1.000000,-0.000080,0.000134,-0.000040,0.999994,-0.003389,0.000252,-0.000285,-0.388320,0.028787,-0.032793,1.000000,-0.000572,-0.000502,0.000569,0.999977,-0.006777,0.000506,0.006777,0.999977
05051,2,0,-58.0000,9.561570,-0.753597,-2.121753,-0.039767,0.019547,0.010316,-0.005157,0.022610,-0.004854,0.282826,0.670413,-0.582411,0.095613,-0.007539,-0.021228,1.000000,-0.000026,0.000113,-0.000024,0.999994,-0.003368,0.000148,-0.000328,-0.385923,0.016884,-0.037688,1.000000,-0.000658,-0.000295,0.000656,0.999977,-0.006736,0.000299,0.006735,0.999977
05052,2,0,-58.0000,9.545204,-0.718880,-2.080819,0.004017,0.000944,-0.016897,-0.000582,0.017412,-0.003684,0.284344,0.676678,-0.585016,0.095450,-0.007191,-0.020816,1.000000,-0.000003,0.000087,-0.000018,0.999994,-0.003345,0.000070,-0.000359,-0.383322,0.007887,-0.041188,1.000000,-0.000719,-0.000138,0.000718,0.999977,-0.006690,0.000142,0.006690,0.999978
05053,2,0,-58.0000,9.612907,-0.684676,-2.095722,0.016510,-0.036232,0.049728,-0.004994,0.006217,0.000381,0.281749,0.665871,-0.588927,0.096128,-0.006847,-0.020960,1.000000,-0.000025,0.000031,0.000002,0.999994,-0.003330,0.000052,-0.000420,-0.381636,0.005815,-0.048168,1.000000,-0.000841,-0.000101,0.000840,0.999977,-0.006661,0.000107,0.006661,0.999978
05054,2,0,-58.0000,9.591073,-0.701423,-2.074646,0.024739,-0.013501,0.025200,-0.002948,0.003786,-0.001624,0.280653,0.667123,-0.586921,0.095910,-0.007015,-0.020748,1.000000,-0.000015,0.000019,-0.000008,0.999994,-0.003324,0.000041,-0.000459,-0.380959,0.004530,-0.052666,1.000000,-0.000919,-0.000079,0.000919,0.999977,-0.006649,0.000085,0.006649,0.999978
05055,2,0,-58.0000,9.590353,-0.693046,-2.097189,0.006709,-0.029608,0.028677,-0.008009,0.005103,0.003262,0.280999,0.670524,-0.585497,0.095903,-0.006930,-0.020974,1.000000,-0.000040,0.000026,0.000016,0.999994,-0.003299,0.000032,-0.000528,-0.377988,0.003484,-0.060542,0.999999,-0.001057,-0.000061,0.001056,0.999978,-0.006597,0.000068,0.006597,0.999978
05056,2,0,-58.0000,9.584520,-0.735992,-2.138094,-0.046864,-0.004344,0.034848,-0.005297,0.005262,0.002917,0.282924,0.673499,-0.581431,0.095845,-0.007359,-0.021383,1.000000,-0.000026,0.000026,0.000015,0.999994,-0.003272,0.000022,-0.000584,-0.374952,0.002318,-0.066967,0.999999,-0.001169,-0.000040,0.001169,0.999978,-0.006544,0.000048,0.006544,0.999979
05057,2,0,-58.0000,9.578178,-0.740037,-2.060855,0.020664,0.025993,0.012544,0.001448,0.003209,0.004307,0.280063,0.665833,-0.583527,0.095782,-0.007398,-0.020610,1.000000,0.000007,0.000016,0.000022,0.999995,-0.003237,0.000025,-0.000617,-0.370937,0.002644,-0.070742,0.999999,-0.001235,-0.000046,0.001234,0.999978,-0.006474,0.000054,0.006474,0.999979
05058,2,0,-58.0000,9.576591,-0.723876,-2.106439,-0.015576,-0.005969,0.019500,0.009702,0.001713,0.004256,0.281107,0.664124,-0.586524,0.095766,-0.007236,-0.021066,1.000000,0.000049,0.000009,0.000021,0.999995,-0.003194,0.000034,-0.000600,-0.365971,0.003705,-0.068807,0.999999,-0.001201,-0.000065,0.001200,0.999979,-0.006387,0.000072,0.006387,0.999980
05059,2,0,-58.0000,9.573664,-0.660297,-2.057005,0.051050,-0.048801,0.001451,0.007950,-0.002451,0.002485,0.275640,0.669558,-0.578999,0.095737,-0.006601,-0.020569,1.000000,0.000040,-0.000012,0.000012,0.999995,-0.003167,0.000060,-0.000587,-0.362909,0.006645,-0.067230,0.999999,-0.001173,-0.000116,0.001173,0.999979,-0.006334,0.000123,0.006334,0.999980
05060,2,0,-58.0000,9.608052,-0.737663,-2.112314,-0.017722,0.003723,0.052420,0.006021,-0.001991,0.005476,0.288794,0.664609,-0.589551,0.096081,-0.007373,-0.021122,1.000000,0.000030,-0.000010,0.000027,0.999995,-0.003129,0.000088,-0.000587,-0.358513,0.009926,-0.067342,0.999999,-0.001175,-0.000173,0.001174,0.999980,-0.006257,0.000181,0.006257,0.999980
05061,2,0,-58.0000,9.607927,-0.738143,-2.112715,-0.017524,0.003530,0.052421,0.004690,-0.007173,0.002154,0.284256,0.663014,-0.578231,0.096080,-0.007380,-0.021124,1.000000,0.000023,-0.000036,0.000011,0.999995,-0.003116,0.000136,-0.000588,-0.357081,0.015377,-0.067377,0.999999,-0.001176,-0.000268,0.001174,0.999980,-0.006232,0.000276,0.006232,0.999981
05062,2,0,-58.0000,9.588612,-0.679394,-2.142658,-0.028404,-0.062727,0.035627,0.006570,0.002573,0.006152,0.281405,0.674640,-0.586092,0.095886,-0.006790,-0.021428,1.000000,0.000033,0.000013,0.000031,0.999995,-0.003066,0.000144,-0.000588,-0.351359,0.016350,-0.067458,0.999999,-0.001177,-0.000285,0.001176,0.999981,-0.006132,0.000293,0.006132,0.999981
05063,2,0,-57.0000,9.576282,-0.726701,-2.106872,-0.014614,-0.006935,0.019500,0.007774,0.002175,0.007247,0.277182,0.672540,-0.585869,0.095763,-0.007263,-0.021070,1.000000,0.000039,0.000011,0.000036,0.999995,-0.003012,0.000158,-0.000585,-0.345155,0.017880,-0.067100,0.999999,-0.001171,-0.000312,0.001169,0.999981,-0.006024,0.000319,0.006024,0.999982
05064,2,0,-57.0000,9.577106,-0.735913,-2.083532,0.003790,0.008744,0.016023,0.007236,0.005165,0.007813,0.285303,0.672852,-0.584987,0.095771,-0.007355,-0.020838,1.000000,0.000036,0.000026,0.000039,0.999995,-0.002949,0.000157,-0.000585,-0.337967,0.017802,-0.067121,0.999999,-0.001171,-0.000311,0.001170,0.999982,-0.005899,0.000318,0.005898,0.999983
05065,2,0,-58.0000,9.559560,-0.694064,-2.066836,0.029341,-0.025732,-0.007730,-0.002221,0.007059,0.006767,0.281366,0.663612,-0.588588,0.095595,-0.006938,-0.020672,1.000000,-0.000011,0.000035,0.000034,0.999996,-0.002900,0.000146,-0.000644,-0.332340,0.016505,-0.073811,0.999999,-0.001288,-0.000288,0.001287,0.999982,-0.005800,0.000296,0.005800,0.999983
05066,2,0,-57.0000,9.585250,-0.750175,-2.113444,-0.026728,0.009656,0.031378,-0.009819,0.003594,0.007236,0.280819,0.664864,-0.584203,0.095852,-0.007499,-0.021136,1.000000,-0.000049,0.000018,0.000036,0.999996,-0.002862,0.000151,-0.000726,-0.327963,0.017097,-0.083217,0.999999,-0.001452,-0.000298,0.001451,0.999983,-0.005724,0.000307,0.005724,0.999984
05067,2,0,-58.0000,9.580912,-0.810218,-2.108689,-0.043841,0.066678,0.030611,-0.001566,0.002098,0.007188,0.287099,0.666027,-0.582896,0.095809,-0.008099,-0.021088,1.000000,-0.000008,0.000010,0.000036,0.999996,-0.002816,0.000164,-0.000763,-0.322727,0.018513,-0.087437,0.999999,-0.001526,-0.000323,0.001524,0.999983,-0.005633,0.000332,0.005632,0.999984
05068,2,0,-58.0000,9.547811,-0.781355,-2.148364,-0.077584,0.024641,0.004647,-0.000713,0.007616,0.005328,0.277095,0.666912,-0.587603,0.095477,-0.007811,-0.021487,1.000000,-0.000004,0.000038,0.000027,0.999996,-0.002770,0.000147,-0.000800,-0.317376,0.016593,-0.091698,0.999999,-0.001600,-0.000290,0.001599,0.999983,-0.005539,0.000298,0.005539,0.999985
05069,2,0,-57.0000,9.559771,-0.696100,-2.065175,0.030090,-0.026549,-0.007734,0.003378,0.002750,0.001317,0.285085,0.670050,-0.583684,0.095597,-0.006960,-0.020653,1.000000,0.000017,0.000014,0.000007,0.999996,-0.002745,0.000147,-0.000808,-0.314555,0.016542,-0.092680,0.999999,-0.001618,-0.000289,0.001616,0.999984,-0.005490,0.000298,0.005490,0.999985
05070,2,0,-58.0000,9.591399,-0.709139,-2.070510,0.027767,-0.016654,0.025188,0.001333,0.005183,0.003323,0.276552,0.671139,-0.587478,0.095914,-0.007090,-0.020708,1.000000,0.000007,0.000026,0.000017,0.999996,-0.002709,0.000138,-0.000833,-0.310469,0.015527,-0.095451,0.999999,-0.001666,-0.000271,0.001664,0.999984,-0.005419,0.000280,0.005418,0.999985
05071,2,0,-57.0000,9.600260,-0.730766,-2.078191,0.015286,0.000320,0.037066,0.001871,0.002194,0.002757,0.286293,0.667168,-0.584464,0.096002,-0.007306,-0.020783,1.000000,0.000009,0.000011,0.000014,0.999996,-0.002682,0.000142,-0.000861,-0.307314,0.016038,-0.098732,0.999998,-0.001723,-0.000280,0.001722,0.999984,-0.005364,0.000289,0.005363,0.999986
05072,2,0,-58.0000,9.613396,-0.693133,-2.090695,0.020086,-0.039967,0.049707,0.002888,-0.001131,0.007374,0.287773,0.670514,-0.580546,0.096134,-0.006927,-0.020907,1.000000,0.000014,-0.000006,0.000037,0.999996,-0.002637,0.000170,-0.000880,-0.302162,0.019232,-0.100857,0.999998,-0.001760,-0.000336,0.001758,0.999985,-0.005274,0.000345,0.005273,0.999986
05073,2,0,-58.0000,9.614957,-0.710408,-2.044712,0.056761,-0.008398,0.042749,0.001450,0.003211,0.004308,0.278339,0.660001,-0.586888,0.096149,-0.007102,-0.020449,1.000000,0.000007,0.000016,0.000022,0.999996,-0.002601,0.000174,-0.000893,-0.298123,0.019705,-0.102348,0.999998,-0.001786,-0.000344,0.001784,0.999985,-0.005203,0.000353,0.005203,0.999986
05074,2,0,-58.0000,9.600330,-0.732492,-2.077260,0.015885,-0.000246,0.037066,0.003754,0.011942,0.006757,0.282440,0.663391,-0.593597,0.096002,-0.007321,-0.020778,1.000000,0.000019,0.000060,0.000034,0.999996,-0.002536,0.000140,-0.000911,-0.290595,0.015771,-0.104475,0.999998,-0.001823,-0.000275,0.001822,0.999985,-0.005072,0.000284,0.005071,0.999987
05075,2,0,-58.0000,9.563008,-0.763160,-2.111829,-0.035167,0.014924,0.010342,0.003088,0.009350,0.005096,0.276452,0.665708,-0.585450,0.095629,-0.007629,-0.021123,1.000000,0.000015,0.000047,0.000025,0.999996,-0.002480,0.000114,-0.000922,-0.284229,0.012823,-0.105722,0.999998,-0.001845,-0.000224,0.001844,0.999986,-0.004961,0.000233,0.004960,0.999988
05076,2,0,-58.0000,9.595497,-0.784819,-2.093756,-0.019255,0.040684,0.039789,0.004713,0.007935,0.004641,0.273631,0.671959,-0.588307,0.095954,-0.007845,-0.020942,1.000000,0.000024,0.000040,0.000023,0.999997,-0.002430,0.000095,-0.000933,-0.278474,0.010611,-0.106885,0.999998,-0.001866,-0.000185,0.001865,0.999986,-0.004860,0.000194,0.004860,0.999988
05077,2,0,-58.0000,9.585211,-0.747377,-2.131038,-0.042875,-0.008397,0.034863,0.011212,0.002270,0.002822,0.284608,0.663083,-0.592845,0.095852,-0.007471,-0.021312,1.000000,0.000056,0.000011,0.000014,0.999997,-0.002391,0.000098,-0.000928,-0.273975,0.010966,-0.106346,0.999998,-0.001856,-0.000191,0.001855,0.999987,-0.004782,0.000200,0.004781,0.999989
05078,2,0,-58.0000,9.603633,-0.798776,-2.123837,-0.049789,0.041588,0.055154,0.012721,0.002826,0.001383,0.284206,0.667161,-0.584233,0.096036,-0.007986,-0.021240,1.000000,0.000064,0.000014,0.000007,0.999997,-0.002355,0.000097,-0.000894,-0.269899,0.010854,-0.102424,0.999998,-0.001788,-0.000189,0.001787,0.999987,-0.004711,0.000198,0.004710,0.999989
05079,2,0,-59.0000,9.578757,-0.751819,-2.053890,0.024863,0.021621,0.012545,0.007282,-0.005044,0.000829,0.277931,0.663283,-0.584288,0.095788,-0.007517,-0.020537,1.000000,0.000036,-0.000025,0.000004,0.999997,-0.002341,0.000132,-0.000870,-0.268258,0.014913,-0.099757,0.999998,-0.001741,-0.000260,0.001740,0.999988,-0.004682,0.000268,0.004682,0.999989
05080,2,0,-58.0000,9.577168,-0.735249,-2.099868,-0.011409,-0.010303,0.019502,0.002596,0.002130,-0.001329,0.279667,0.662605,-0.587194,0.095771,-0.007353,-0.021000,1.000000,0.000013,0.000011,-0.000007,0.999997,-0.002330,0.000129,-0.000882,-0.267041,0.014599,-0.101127,0.999998,-0.001765,-0.000255,0.001764,0.999988,-0.004661,0.000263,0.004660,0.999989
05081,2,0,-58.0000,9.546474,-0.730457,-2.070937,0.009499,-0.004743,-0.016902,-0.002220,0.003721,-0.005714,0.283801,0.665933,-0.586895,0.095464,-0.007308,-0.020711,1.000000,-0.000011,0.000019,-0.000029,0.999997,-0.002342,0.000111,-0.000914,-0.268331,0.012508,-0.104777,0.999998,-0.001829,-0.000218,0.001828,0.999987,-0.004683,0.000227,0.004683,0.999989
05082,2,0,-58.0000,9.568526,-0.712976,-2.091435,0.001620,-0.027874,0.007615,-0.002771,-0.000843,-0.006390,0.280970,0.670752,-0.585240,0.095685,-0.007133,-0.020914,1.000000,-0.000014,-0.000004,-0.000032,0.999997,-0.002365,0.000113,-0.000946,-0.271036,0.012749,-0.108401,0.999998,-0.001892,-0.000223,0.001891,0.999987,-0.004730,0.000231,0.004730,0.999989
05083,2,0,-58.0000,9.561264,-0.707600,-2.037864,0.050942,-0.013502,-0.011229,-0.006033,-0.005566,-0.006722,0.284526,0.669711,-0.591322,0.095613,-0.007080,-0.020376,1.000000,-0.000030,-0.000028,-0.000034,0.999997,-0.002403,0.000138,-0.000991,-0.275334,0.015519,-0.113633,0.999998,-0.001983,-0.000271,0.001982,0.999986,-0.004805,0.000280,0.004805,0.999988
05084,2,0,-58.0000,9.564055,-0.771221,-2.087797,-0.015249,0.028995,0.006872,-0.002842,-0.005741,-0.001883,0.276811,0.663764,-0.582526,0.095641,-0.007713,-0.020875,1.000000,-0.000014,-0.000029,-0.000009,0.999997,-0.002414,0.000171,-0.001026,-0.276665,0.019296,-0.117632,0.999998,-0.002053,-0.000337,0.002051,0.999986,-0.004829,0.000347,0.004828,0.999988
05085,2,0,-58.0000,9.591080,-0.703029,-2.090528,0.012357,-0.035537,0.028652,0.008008,-0.005108,-0.003258,0.276796,0.668479,-0.582774,0.095911,-0.007031,-0.020903,1.000000,0.000040,-0.000026,-0.000016,0.999997,-0.002419,0.000199,-0.001008,-0.277167,0.022501,-0.115588,0.999998,-0.002017,-0.000393,0.002015,0.999986,-0.004837,0.000402,0.004837,0.999988
05086,2,0,-58.0000,9.576244,-0.724587,-2.124249,-0.028516,-0.027356,0.022980,0.007283,-0.005043,0.000829,0.278304,0.658340,-0.582871,0.095763,-0.007245,-0.021240,1.000000,0.000036,-0.000025,0.000004,0.999997,-0.002405,0.000233,-0.000997,-0.275637,0.026481,-0.114295,0.999998,-0.001995,-0.000462,0.001993,0.999986,-0.004811,0.000472,0.004810,0.999988
05087,2,0,-58.0000,9.590909,-0.703407,-2.091188,0.012725,-0.035934,0.028650,0.009038,-0.000876,0.002601,0.293854,0.668307,-0.583452,0.095909,-0.007032,-0.020912,1.000000,0.000045,-0.000004,0.000013,0.999997,-0.002375,0.000252,-0.000985,-0.272145,0.028580,-0.112984,0.999998,-0.001972,-0.000499,0.001970,0.999987,-0.004750,0.000508,0.004749,0.999989
05088,2,0,-58.0000,9.580562,-0.806149,-2.127999,-0.058041,0.046673,0.034134,0.013375,-0.002133,0.001803,0.273769,0.659641,-0.584079,0.095806,-0.008059,-0.021280,1.000000,0.000067,-0.000011,0.000009,0.999997,-0.002345,0.000275,-0.000946,-0.268744,0.031213,-0.108533,0.999998,-0.001894,-0.000545,0.001892,0.999987,-0.004690,0.000554,0.004689,0.999989
05089,2,0,-58.0000,9.571704,-0.785469,-2.119981,-0.045178,0.029316,0.022245,0.022297,-0.001035,0.003421,0.280227,0.667549,-0.584567,0.095717,-0.007851,-0.021200,1.000000,0.000111,-0.000005,0.000017,0.999997,-0.002296,0.000296,-0.000856,-0.263145,0.033732,-0.098133,0.999998,-0.001713,-0.000589,0.001710,0.999988,-0.004593,0.000597,0.004592,0.999989
05090,2,0,-58.0000,9.591547,-0.713218,-2.068426,0.031539,-0.020674,0.025169,0.015726,-0.003612,-0.002735,0.283004,0.662187,-0.586210,0.095916,-0.007132,-0.020683,1.000000,0.000079,-0.000018,-0.000014,0.999997,-0.002287,0.000318,-0.000800,-0.262102,0.036244,-0.091754,0.999999,-0.001601,-0.000633,0.001599,0.999988,-0.004575,0.000640,0.004574,0.999989
05091,2,0,-58.0000,9.585553,-0.756336,-2.109870,-0.021975,0.004678,0.031393,0.016090,-0.001971,0.001463,0.277789,0.659994,-0.579996,0.095856,-0.007561,-0.021098,1.000000,0.000080,-0.000010,0.000007,0.999997,-0.002255,0.000340,-0.000745,-0.258483,0.038774,-0.085471,0.999999,-0.001492,-0.000677,0.001489,0.999989,-0.004511,0.000683,0.004510,0.999990
05092,2,0,-58.0000,9.568665,-0.722463,-2.071056,0.021751,-0.013995,0.004130,0.012290,-0.003704,0.001697,0.283635,0.673412,-0.577336,0.095687,-0.007223,-0.020709,1.000000,0.000061,-0.000019,0.000008,0.999997,-0.002230,0.000370,-0.000711,-0.255588,0.042224,-0.081544,0.999999,-0.001423,-0.000737,0.001420,0.999989,-0.004461,0.000743,0.004460,0.999990
05093,2,0,-58.0000,9.600204,-0.735448,-2.076797,0.019476,-0.004067,0.037058,0.012360,0.001192,-0.002812,0.279831,0.663149,-0.586731,0.096002,-0.007355,-0.020769,1.000000,0.000062,0.000006,-0.000014,0.999997,-0.002219,0.000370,-0.000679,-0.254331,0.042255,-0.077890,0.999999,-0.001359,-0.000737,0.001356,0.999989,-0.004439,0.000744,0.004438,0.999990
05094,2,0,-58.0000,9.598609,-0.719123,-2.122674,-0.016817,-0.035968,0.044015,0.011870,-0.002683,0.003248,0.281591,0.664408,-0.581625,0.095986,-0.007188,-0.021226,1.000000,0.000059,-0.000013,0.000016,0.999997,-0.002186,0.000398,-0.000649,-0.250479,0.045471,-0.074430,0.999999,-0.001299,-0.000794,0.001296,0.999990,-0.004372,0.000799,0.004371,0.999990
05095,2,0,-58.0000,9.567768,-0.715291,-2.094108,0.004093,-0.030397,0.007607,0.016876,-0.001345,0.004113,0.282148,0.666926,-0.584259,0.095678,-0.007149,-0.020941,1.000000,0.000084,-0.000007,0.000021,0.999997,-0.002140,0.000422,-0.000595,-0.245262,0.048188,-0.068280,0.999999,-0.001192,-0.000841,0.001188,0.999990,-0.004281,0.000846,0.004280,0.999990
05096,2,0,-58.0000,9.575213,-0.689693,-2.007088,0.094462,-0.024465,-0.005585,0.007649,-0.003397,0.005032,0.279966,0.666808,-0.589268,0.095753,-0.006894,-0.020070,1.000000,0.000038,-0.000017,0.000025,0.999998,-0.002104,0.000456,-0.000587,-0.241165,0.052137,-0.067362,0.999999,-0.001176,-0.000910,0.001172,0.999990,-0.004209,0.000915,0.004208,0.999991
05097,2,0,-58.0000,9.601491,-0.614062,-2.032465,0.103788,-0.104867,0.019649,0.002773,0.000849,0.006390,0.282899,0.665785,-0.582929,0.096015,-0.006137,-0.020325,1.000000,0.000014,0.000004,0.000032,0.999998,-0.002061,0.000473,-0.000610,-0.236158,0.054082,-0.069965,0.999999,-0.001221,-0.000944,0.001217,0.999991,-0.004122,0.000949,0.004121,0.999991
05098,2,0,-58.0000,9.575602,-0.730398,-2.125155,-0.026236,-0.029671,0.022980,-0.000361,0.001709,0.008283,0.283583,0.663675,-0.585843,0.095756,-0.007300,-0.021252,1.000000,-0.000002,0.000009,0.000041,0.999998,-0.002010,0.000489,-0.000646,-0.230391,0.055934,-0.074134,0.999999,-0.001294,-0.000976,0.001290,0.999991,-0.004021,0.000981,0.004020,0.999991
05099,2,0,-58.0000,9.588773,-0.833533,-2.136329,-0.068529,0.061740,0.046052,0.014107,0.001158,0.010204,0.279117,0.667746,-0.585564,0.095888,-0.008329,-0.021364,1.000000,0.000071,0.000006,0.000051,0.999998,-0.001936,0.000512,-0.000609,-0.221895,0.058589,-0.069898,0.999999,-0.001220,-0.001023,0.001216,0.999992,-0.003873,0.001027,0.003872,0.999992
05100,2,0,-57.0000,9.585098,-0.762181,-2.109835,-0.020246,0.002954,0.031397,0.013323,0.000535,0.007558,0.284235,0.668649,-0.586244,0.095851,-0.007617,-0.021099,1.000000,0.000067,0.000003,0.000038,0.999998,-0.001876,0.000533,-0.000577,-0.214967,0.060953,-0.066288,0.999999,-0.001157,-0.001064,0.001153,0.999992,-0.003752,0.001068,0.003751,0.999992
05101,2,0,-58.0000,9.541163,-0.796574,-2.068156,-0.003897,0.048642,-0.017627,0.010681,0.005270,0.003389,0.283992,0.670216,-0.581177,0.095411,-0.007963,-0.020684,1.000000,0.000053,0.000026,0.000017,0.999998,-0.001830,0.000524,-0.000562,-0.209709,0.059969,-0.064486,0.999999,-0.001125,-0.001047,0.001122,0.999993,-0.003660,0.001051,0.003659,0.999993
05102,2,0,-58.0000,9.595564,-0.801457,-2.070938,0.003989,0.051431,0.036338,0.007547,0.006131,0.005282,0.287020,0.661824,-0.579871,0.095955,-0.008011,-0.020713,1.000000,0.000038,0.000031,0.000026,0.999998,-0.001777,0.000515,-0.000558,-0.203611,0.058860,-0.064069,0.999999,-0.001118,-0.001027,0.001115,0.999993,-0.003554,0.001031,0.003553,0.999993
05103,2,0,-58.0000,9.572036,-0.802327,-2.095866,-0.024203,0.042518,0.018786,0.012960,-0.001106,0.003364,0.280472,0.667777,-0.583121,0.095721,-0.008020,-0.020959,1.000000,0.000065,-0.000006,0.000017,0.999998,-0.001740,0.000537,-0.000517,-0.199458,0.061447,-0.059354,0.999999,-0.001036,-0.001072,0.001032,0.999993,-0.003481,0.001076,0.003480,0.999993
05104,2,0,-58.0000,9.585956,-0.773159,-2.085560,-0.001209,0.018060,0.027920,0.019593,-0.001182,0.003778,0.285157,0.665965,-0.584452,0.095860,-0.007728,-0.020856,1.000000,0.000098,-0.000006,0.000019,0.999998,-0.001693,0.000559,-0.000450,-0.194032,0.063977,-0.051710,0.999999,-0.000903,-0.001117,0.000899,0.999994,-0.003386,0.001120,0.003385,0.999994
05105,2,0,-58.0000,9.558723,-0.701701,-2.084634,0.018654,-0.049465,-0.004300,0.016996,-0.003311,0.005110,0.277981,0.660229,-0.588058,0.095588,-0.007013,-0.020845,1.000000,0.000085,-0.000017,0.000026,0.999998,-0.001647,0.000594,-0.000399,-0.188796,0.067999,-0.045794,0.999999,-0.000799,-0.001187,0.000795,0.999994,-0.003295,0.001189,0.003294,0.999994
05106,2,0,-58.0000,9.598926,-0.736656,-2.098663,0.003738,-0.022419,0.040531,0.014820,-0.006460,0.004892,0.281647,0.670728,-0.588152,0.095990,-0.007363,-0.020984,1.000000,0.000074,-0.000032,0.000024,0.999998,-0.001609,0.000643,-0.000354,-0.184449,0.073573,-0.040717,0.999999,-0.000711,-0.001284,0.000707,0.999995,-0.003219,0.001286,0.003218,0.999994
05107,2,0,-58.0000,9.583974,-0.758952,-2.132511,-0.037135,-0.014199,0.034880,0.016866,-0.008894,0.002892,0.287120,0.668971,-0.583652,0.095841,-0.007586,-0.021321,1.000000,0.000084,-0.000044,0.000014,0.999998,-0.001582,0.000699,-0.000304,-0.181314,0.080003,-0.034943,0.999999,-0.000610,-0.001396,0.000605,0.999995,-0.003165,0.001398,0.003164,0.999994
05108,2,0,-58.0000,9.570584,-0.798017,-2.120354,-0.041498,0.025710,0.022272,0.024954,-0.005748,0.007615,0.290894,0.659271,-0.588282,0.095707,-0.007974,-0.021202,1.000000,0.000125,-0.000029,0.000038,0.999999,-0.001519,0.000749,-0.000213,-0.174090,0.085764,-0.024568,0.999999,-0.000429,-0.001497,0.000424,0.999995,-0.003038,0.001498,0.003038,0.999994
05109,2,0,-58.0000,9.585178,-0.777401,-2.087555,-0.000228,0.017086,0.027922,0.023385,-0.006996,0.002323,0.275918,0.666763,-0.584826,0.095853,-0.007770,-0.020873,1.000000,0.000117,-0.000035,0.000012,0.999999,-0.001484,0.000797,-0.000107,-0.170087,0.091300,-0.012397,0.999999,-0.000216,-0.001593,0.000212,0.999996,-0.002969,0.001594,0.002968,0.999994
05110,2,0,-58.0000,9.561483,-0.778628,-2.113090,-0.028459,0.008149,0.010372,0.030270,-0.003452,0.005948,0.286082,0.662824,-0.583413,0.095615,-0.007780,-0.021130,1.000000,0.000151,-0.000017,0.000030,0.999999,-0.001419,0.000833,0.000010,-0.162588,0.095499,0.001047,0.999999,0.000018,-0.001667,-0.000023,0.999996,-0.002838,0.001667,0.002838,0.999995
05111,2,0,-58.0000,9.598089,-0.741346,-2.100837,0.004699,-0.023404,0.040528,0.024174,-0.006365,0.004976,0.276127,0.663536,-0.585876,0.095982,-0.007409,-0.021006,1.000000,0.000121,-0.000032,0.000025,0.999999,-0.001370,0.000882,0.000094,-0.157038,0.101071,0.010617,0.999998,0.000185,-0.001764,-0.000190,0.999996,-0.002741,0.001764,0.002741,0.999995
05112,2,0,-58.0000,9.575129,-0.750808,-2.103655,-0.005282,-0.016502,0.019498,0.017656,-0.008258,0.005551,0.282812,0.668192,-0.593182,0.095752,-0.007504,-0.021033,1.000000,0.000088,-0.000041,0.000028,0.999999,-0.001329,0.000940,0.000152,-0.152331,0.107744,0.017280,0.999998,0.000302,-0.001880,-0.000307,0.999996,-0.002659,0.001880,0.002659,0.999995
05113,2,0,-58.0000,9.552910,-0.768496,-2.083722,0.002975,0.006226,-0.005011,0.015059,-0.010386,0.006884,0.273030,0.661751,-0.581403,0.095530,-0.007680,-0.020833,1.000000,0.000075,-0.000052,0.000034,0.999999,-0.001288,0.001010,0.000185,-0.147625,0.115734,0.021089,0.999998,0.000368,-0.002020,-0.000373,0.999997,-0.002577,0.002019,0.002577,0.999995
05114,2,0,-58.0000,9.569392,-0.803868,-2.123521,-0.040343,0.024542,0.022279,0.015480,-0.011406,0.005337,0.280118,0.669887,-0.578779,0.095695,-0.008034,-0.021230,1.000000,0.000077,-0.000057,0.000027,0.999999,-0.001256,0.001082,0.000234,-0.143933,0.124046,0.026704,0.999998,0.000466,-0.002165,-0.000472,0.999997,-0.002512,0.002164,0.002513,0.999995
05115,2,0,-58.0000,9.588251,-0.864047,-2.094330,-0.028893,0.090399,0.039132,0.027127,-0.010135,0.006622,0.286344,0.668718,-0.593245,0.095884,-0.008634,-0.020940,1.000000,0.000136,-0.000051,0.000033,0.999999,-0.001205,0.001151,0.000316,-0.138034,0.131922,0.036094,0.999997,0.000630,-0.002302,-0.000636,0.999997,-0.002409,0.002301,0.002411,0.999994
05116,2,0,-58.0000,9.556541,-0.712048,-2.091118,0.020690,-0.051609,-0.004315,0.029058,-0.010599,0.003637,0.284755,0.661942,-0.594131,0.095567,-0.007116,-0.020907,1.000000,0.000145,-0.000053,0.000018,0.999998,-0.001164,0.001217,0.000433,-0.133301,0.139474,0.049460,0.999997,0.000863,-0.002434,-0.000869,0.999997,-0.002327,0.002432,0.002329,0.999994
05117,2,0,-58.0000,9.573807,-0.755518,-2.107984,-0.004371,-0.017488,0.019497,0.016323,-0.013443,0.002249,0.284847,0.666570,-0.592900,0.095740,-0.007552,-0.021074,1.000000,0.000082,-0.000067,0.000011,0.999998,-0.001147,0.001293,0.000494,-0.131327,0.148230,0.056421,0.999996,0.000985,-0.002587,-0.000991,0.999997,-0.002292,0.002585,0.002295,0.999994
05118,2,0,-58.0000,9.597115,-0.755718,-2.083786,0.024243,-0.008962,0.037044,0.011865,-0.010219,0.002048,0.282653,0.664384,-0.582872,0.095972,-0.007555,-0.020833,1.000000,0.000059,-0.000051,0.000010,0.999998,-0.001132,0.001354,0.000528,-0.129585,0.155234,0.060365,0.999996,0.001054,-0.002709,-0.001060,0.999997,-0.002262,0.002707,0.002265,0.999994
05119,2,0,-57.0000,9.550517,-0.764894,-2.112268,-0.014163,-0.010774,-0.001530,0.011196,-0.012815,0.000394,0.288725,0.662461,-0.583020,0.095507,-0.007648,-0.021117,1.000000,0.000056,-0.000064,0.000002,0.999998,-0.001129,0.001424,0.000559,-0.129307,0.163302,0.063836,0.999995,0.001114,-0.002850,-0.001121,0.999997,-0.002257,0.002848,0.002260,0.999993
05120,2,0,-58.0000,9.606193,-0.785863,-2.070810,0.030263,0.023645,0.045472,0.011080,-0.010847,-0.000598,0.280948,0.667729,-0.592752,0.096063,-0.007858,-0.020703,1.000000,0.000055,-0.000054,-0.000003,0.999998,-0.001128,0.001484,0.000592,-0.129171,0.170104,0.067689,0.999995,0.001181,-0.002969,-0.001188,0.999997,-0.002254,0.002966,0.002258,0.999993
05121,2,0,-58.0000,9.571994,-0.748486,-2.135092,-0.021876,-0.034102,0.022976,0.006069,-0.012189,-0.001462,0.288664,0.671489,-0.582004,0.095721,-0.007485,-0.021345,1.000000,0.000030,-0.000061,-0.000007,0.999998,-0.001139,0.001548,0.000602,-0.130396,0.177471,0.068804,0.999994,0.001201,-0.003097,-0.001208,0.999997,-0.002276,0.003095,0.002280,0.999993
05122,2,0,-57.0000,9.580549,-0.769996,-2.143911,-0.034305,-0.017121,0.034886,0.004694,-0.007156,0.002188,0.282444,0.671043,-0.585330,0.095806,-0.007698,-0.021436,1.000000,0.000023,-0.000036,0.000011,0.999998,-0.001126,0.001595,0.000600,-0.128910,0.182852,0.068591,0.999994,0.001197,-0.003191,-0.001204,0.999997,-0.002250,0.003189,0.002254,0.999992
05123,2,0,-58.0000,9.544429,-0.816517,-2.134037,-0.048788,0.029958,0.001265,0.007762,-0.008722,-0.006434,0.285357,0.670514,-0.591013,0.095445,-0.008167,-0.021337,1.000000,0.000039,-0.000044,-0.000032,0.999998,-0.001154,0.001635,0.000612,-0.132113,0.187436,0.069966,0.999994,0.001221,-0.003271,-0.001229,0.999997,-0.002306,0.003269,0.002310,0.999992
05124,2,0,-58.0000,9.559163,-0.794721,-2.101340,-0.007553,0.021298,0.006901,0.015321,-0.002575,-0.001161,0.291551,0.671275,-0.588433,0.095592,-0.007946,-0.021013,1.000000,0.000077,-0.000013,-0.000006,0.999998,-0.001136,0.001655,0.000664,-0.130081,0.189697,0.075887,0.999994,0.001324,-0.003311,-0.001332,0.999997,-0.002270,0.003308,0.002275,0.999992
05125,2,0,-58.0000,9.572280,-0.756838,-2.114435,-0.002832,-0.018997,0.019495,0.015859,-0.005564,-0.001715,0.279954,0.662408,-0.589766,0.095723,-0.007568,-0.021142,1.000000,0.000079,-0.000028,-0.000009,0.999998,-0.001126,0.001688,0.000718,-0.128943,0.193533,0.082076,0.999993,0.001432,-0.003378,-0.001440,0.999996,-0.002250,0.003375,0.002255,0.999992
05126,2,0,-58.0000,9.545031,-0.824876,-2.111954,-0.029940,0.045214,-0.002211,0.018340,-0.001467,-0.004041,0.282578,0.658558,-0.588367,0.095450,-0.008249,-0.021120,1.000000,0.000092,-0.000007,-0.000020,0.999998,-0.001117,0.001697,0.000787,-0.127799,0.194620,0.089982,0.999993,0.001570,-0.003397,-0.001578,0.999996,-0.002230,0.003393,0.002236,0.999992
05127,2,0,-58.0000,9.558971,-0.935266,-2.099814,-0.053841,0.152463,0.017457,0.026488,-0.000979,-0.005062,0.284755,0.661391,-0.584610,0.095590,-0.009352,-0.020999,1.000000,0.000132,-0.000005,-0.000025,0.999998,-0.001100,0.001702,0.000894,-0.125846,0.195159,0.102218,0.999993,0.001784,-0.003406,-0.001792,0.999996,-0.002196,0.003402,0.002203,0.999992
05128,2,0,-58.0000,9.599063,-0.929618,-1.995317,0.052367,0.184138,0.033674,0.037774,-0.001350,-0.007968,0.282194,0.662612,-0.585522,0.095990,-0.009296,-0.019954,1.000000,0.000189,-0.000007,-0.000040,0.999997,-0.001086,0.001704,0.001062,-0.124186,0.195410,0.121443,0.999992,0.002120,-0.003411,-0.002127,0.999995,-0.002167,0.003406,0.002175,0.999992
05129,2,0,-58.0000,9.596698,-0.905204,-2.063790,-0.002234,0.136480,0.044118,0.056255,0.002785,-0.009789,0.282815,0.667186,-0.584413,0.095966,-0.009051,-0.020642,1.000000,0.000281,0.000014,-0.000049,0.999997,-0.001051,0.001684,0.001318,-0.120234,0.193107,0.150803,0.999991,0.002632,-0.003370,-0.002639,0.999994,-0.002098,0.003365,0.002107,0.999992
05130,2,0,-58.0000,9.526926,-0.493753,-2.122489,0.071424,-0.269322,-0.043683,0.060224,-0.007660,-0.015963,0.293415,0.662537,-0.588112,0.095270,-0.004939,-0.021223,1.000000,0.000301,-0.000038,-0.000080,0.999997,-0.001059,0.001701,0.001606,-0.121057,0.195144,0.183809,0.999989,0.003208,-0.003406,-0.003215,0.999993,-0.002113,0.003399,0.002124,0.999992
05131,2,0,-58.0000,9.681774,-0.773996,-2.098012,0.032027,0.001507,0.123934,0.041949,-0.005484,-0.005193,0.290855,0.667269,-0.584264,0.096818,-0.007738,-0.020979,1.000000,0.000210,-0.000027,-0.000026,0.999996,-0.001035,0.001728,0.001795,-0.118269,0.198263,0.205522,0.999988,0.003587,-0.003460,-0.003594,0.999991,-0.002064,0.003453,0.002077,0.999992
05132,2,0,-58.0000,9.536392,-0.523761,-2.107840,0.077453,-0.236712,-0.035261,0.039787,-0.001076,-0.004193,0.294261,0.656909,-0.585801,0.095364,-0.005235,-0.021079,1.000000,0.000199,-0.000005,-0.000021,0.999996,-0.001001,0.001736,0.001969,-0.114321,0.199132,0.225403,0.999986,0.003934,-0.003476,-0.003941,0.999990,-0.001995,0.003468,0.002009,0.999992
05133,2,0,-58.0000,9.625619,-0.614007,-2.143484,0.034986,-0.165238,0.066358,0.031310,-0.017616,-0.003037,0.282199,0.669099,-0.585022,0.096258,-0.006138,-0.021427,1.000000,0.000157,-0.000088,-0.000015,0.999996,-0.001000,0.001824,0.002122,-0.114176,0.209267,0.242933,0.999984,0.004240,-0.003652,-0.004247,0.999989,-0.001993,0.003644,0.002008,0.999991
05134,2,0,-58.0000,9.705227,-0.955808,-2.189287,-0.106800,0.136794,0.180704,0.046754,0.003217,0.006165,0.289946,0.667490,-0.578542,0.097052,-0.009550,-0.021897,1.000000,0.000234,0.000016,0.000031,0.999995,-0.000904,0.001830,0.002316,-0.103062,0.209940,0.265261,0.999983,0.004630,-0.003664,-0.004636,0.999988,-0.001799,0.003656,0.001816,0.999992
05135,2,0,-58.0000,9.501174,-0.621392,-2.192702,-0.039428,-0.178787,-0.043713,0.050067,-0.002280,-0.000447,0.288011,0.665270,-0.597639,0.095012,-0.006209,-0.021927,1.000000,0.000250,-0.000011,-0.000002,0.999995,-0.000845,0.001851,0.002524,-0.096326,0.212302,0.289054,0.999980,0.005045,-0.003705,-0.005051,0.999986,-0.001681,0.003697,0.001700,0.999992
05136,2,0,-58.0000,9.633298,-0.911145,-2.169404,-0.088921,0.099157,0.102916,0.048563,-0.002824,0.001002,0.287809,0.663602,-0.585064,0.096333,-0.009106,-0.021695,1.000000,0.000243,-0.000014,0.000005,0.999994,-0.000781,0.001876,0.002735,-0.088860,0.215161,0.313285,0.999978,0.005468,-0.003755,-0.005474,0.999984,-0.001551,0.003747,0.001571,0.999992
05137,2,0,-58.0000,9.570022,-0.845886,-2.039835,0.037190,0.083407,0.008384,0.041448,0.005097,-0.003409,0.285834,0.660793,-0.582103,0.095700,-0.008456,-0.020403,1.000000,0.000207,0.000025,-0.000017,0.999994,-0.000729,0.001855,0.002912,-0.082972,0.212853,0.333524,0.999976,0.005821,-0.003715,-0.005826,0.999982,-0.001448,0.003706,0.001470,0.999992
05138,2,0,-58.0000,9.503709,-0.788304,-2.120061,-0.030854,-0.000153,-0.043572,0.044040,-0.000321,-0.005932,0.293712,0.659247,-0.581916,0.095037,-0.007881,-0.021202,1.000000,0.000220,-0.000002,-0.000030,0.999993,-0.000697,0.001856,0.003108,-0.079220,0.212956,0.355956,0.999974,0.006213,-0.003717,-0.006218,0.999980,-0.001383,0.003708,0.001406,0.999992
05139,2,0,-58.0000,9.577303,-0.851602,-2.092744,-0.011548,0.068591,0.027267,0.042348,0.000374,-0.012214,0.286224,0.659800,-0.590211,0.095772,-0.008517,-0.020929,1.000000,0.000212,0.000002,-0.000061,0.999993,-0.000695,0.001844,0.003307,-0.078920,0.211533,0.378845,0.999971,0.006612,-0.003692,-0.006617,0.999977,-0.001377,0.003683,0.001402,0.999992
05140,2,0,-58.0000,9.564175,-0.749093,-2.082306,0.030924,-0.023277,0.004088,0.016486,-0.003647,-0.006748,0.290725,0.666041,-0.585737,0.095642,-0.007492,-0.020822,1.000000,0.000082,-0.000018,-0.000034,0.999992,-0.000703,0.001858,0.003371,-0.079858,0.213231,0.386142,0.999970,0.006739,-0.003722,-0.006745,0.999976,-0.001394,0.003712,0.001419,0.999992
05141,2,0,-58.0000,9.523048,-0.706406,-2.091910,0.027859,-0.066526,-0.037293,0.021688,0.000618,-0.009416,0.287599,0.660430,-0.585517,0.095230,-0.007066,-0.020920,1.000000,0.000108,0.000003,-0.000047,0.999992,-0.000710,0.001849,0.003459,-0.080652,0.212122,0.396261,0.999969,0.006916,-0.003702,-0.006921,0.999975,-0.001408,0.003692,0.001433,0.999992
05142,2,0,-58.0000,9.577439,-0.709926,-2.095276,0.035790,-0.063794,0.016665,0.002166,-0.000258,-0.012252,0.285620,0.664398,-0.588568,0.095774,-0.007105,-0.020953,1.000000,0.000011,-0.000001,-0.000061,0.999992,-0.000754,0.001838,0.003458,-0.085667,0.210877,0.396076,0.999969,0.006913,-0.003680,-0.006918,0.999975,-0.001495,0.003670,0.001521,0.999992
05143,2,0,-58.0000,9.570672,-0.744422,-2.158915,-0.035936,-0.054105,0.026450,0.004413,0.003625,-0.005315,0.281171,0.665006,-0.581277,0.095706,-0.007446,-0.021591,1.000000,0.000022,0.000018,-0.000027,0.999992,-0.000757,0.001821,0.003452,-0.086001,0.208943,0.395449,0.999970,0.006902,-0.003647,-0.006907,0.999975,-0.001501,0.003636,0.001526,0.999992
05144,2,0,-58.0000,9.581232,-0.781717,-2.120220,-0.011784,-0.005500,0.031410,0.009130,0.004048,-0.001902,0.292099,0.666671,-0.581043,0.095812,-0.007817,-0.021204,1.000000,0.000046,0.000020,-0.000010,0.999992,-0.000738,0.001808,0.003472,-0.083854,0.207495,0.397708,0.999969,0.006941,-0.003621,-0.006947,0.999975,-0.001464,0.003611,0.001489,0.999992
05145,2,0,-58.0000,9.543770,-0.812296,-2.154832,-0.062790,0.009995,0.004778,0.014149,0.005411,-0.001030,0.283094,0.660959,-0.586732,0.095437,-0.008122,-0.021551,1.000000,0.000071,0.000027,-0.000005,0.999992,-0.000709,0.001791,0.003502,-0.080582,0.205565,0.401180,0.999969,0.007002,-0.003588,-0.007007,0.999974,-0.001406,0.003578,0.001432,0.999993
05146,2,0,-57.0000,9.549065,-0.761197,-2.136537,-0.027253,-0.031703,0.001950,0.016988,0.003617,-0.000365,0.287506,0.669600,-0.583240,0.095490,-0.007610,-0.021368,1.000000,0.000085,0.000018,-0.000002,0.999992,-0.000676,0.001784,0.003559,-0.076691,0.204666,0.407660,0.999968,0.007115,-0.003572,-0.007120,0.999974,-0.001339,0.003562,0.001364,0.999993
05147,2,0,-57.0000,9.573549,-0.769010,-2.087919,0.019664,-0.007402,0.016005,0.013178,0.001870,-0.000133,0.279256,0.669233,-0.587099,0.095735,-0.007689,-0.020881,1.000000,0.000066,0.000009,-0.000001,0.999992,-0.000649,0.001784,0.003583,-0.073651,0.204737,0.410469,0.999968,0.007164,-0.003573,-0.007169,0.999973,-0.001285,0.003564,0.001311,0.999993
05148,2,0,-57.0000,9.573511,-0.769498,-2.087915,0.019853,-0.007598,0.016004,0.017464,-0.004236,0.003636,0.292724,0.664394,-0.591460,0.095736,-0.007691,-0.020878,1.000000,0.000087,-0.000021,0.000018,0.999992,-0.000610,0.001820,0.003641,-0.069162,0.208857,0.417084,0.999967,0.007279,-0.003645,-0.007284,0.999973,-0.001207,0.003636,0.001234,0.999993
05149,2,0,-57.0000,9.633826,-0.730763,-2.050593,0.081410,-0.030583,0.063648,-0.001749,0.003374,-0.000562,0.291738,0.657068,-0.580208,0.096338,-0.007308,-0.020507,1.000000,-0.000009,0.000017,-0.000003,0.999992,-0.000599,0.001813,0.003592,-0.067921,0.207987,0.411513,0.999968,0.007182,-0.003630,-0.007187,0.999973,-0.001185,0.003621,0.001211,0.999993
05150,2,0,-57.0000,9.567594,-0.812668,-2.128265,-0.033395,0.017734,0.022320,-0.009002,0.005681,-0.007182,0.291030,0.661838,-0.581047,0.095675,-0.008131,-0.021285,1.000000,-0.000045,0.000028,-0.000036,0.999992,-0.000622,0.001783,0.003529,-0.070578,0.204580,0.404213,0.999969,0.007055,-0.003571,-0.007059,0.999974,-0.001232,0.003562,0.001257,0.999993
05151,2,0,-57.0000,9.586901,-0.730419,-2.100282,0.024909,-0.048283,0.028574,-0.011182,0.002524,-0.007389,0.290914,0.662758,-0.589288,0.095868,-0.007309,-0.021004,1.000000,-0.000056,0.000013,-0.000037,0.999992,-0.000655,0.001769,0.003464,-0.074376,0.202979,0.396829,0.999970,0.006926,-0.003543,-0.006931,0.999975,-0.001298,0.003534,0.001323,0.999993
05152,2,0,-57.0000,9.603034,-0.756280,-2.161279,-0.036635,-0.045696,0.059390,-0.014431,0.012902,-0.005323,0.293999,0.660766,-0.586242,0.096029,-0.007567,-0.021618,1.000000,-0.000072,0.000065,-0.000027,0.999993,-0.000663,0.001709,0.003369,-0.075345,0.196075,0.385949,0.999971,0.006736,-0.003422,-0.006741,0.999976,-0.001315,0.003413,0.001338,0.999993
05153,2,0,-57.0000,9.598172,-0.806862,-2.177894,-0.071760,-0.004376,0.062230,-0.004641,0.012000,-0.006764,0.287544,0.668466,-0.594274,0.095980,-0.008072,-0.021785,1.000000,-0.000023,0.000060,-0.000034,0.999993,-0.000668,0.001651,0.003333,-0.075937,0.189468,0.381815,0.999972,0.006664,-0.003307,-0.006668,0.999977,-0.001325,0.003298,0.001347,0.999994
05154,2,0,-57.0000,9.580204,-0.755373,-2.183649,-0.064696,-0.054746,0.041856,-0.001359,0.024297,-0.005261,0.289658,0.666442,-0.592005,0.095799,-0.007556,-0.021848,1.000000,-0.000007,0.000121,-0.000026,0.999993,-0.000641,0.001538,0.003297,-0.072912,0.176480,0.377713,0.999974,0.006592,-0.003080,-0.006596,0.999977,-0.001273,0.003072,0.001293,0.999994
05155,2,0,-57.0000,9.578097,-0.829916,-2.129960,-0.044979,0.033966,0.034254,-0.009699,0.025031,-0.011983,0.279243,0.661945,-0.584340,0.095778,-0.008306,-0.021311,1.000000,-0.000048,0.000125,-0.000060,0.999994,-0.000653,0.001409,0.003221,-0.074292,0.161703,0.368988,0.999975,0.006440,-0.002822,-0.006444,0.999978,-0.001297,0.002814,0.001315,0.999995
05156,2,0,-57.0000,9.560180,-0.637336,-2.137972,0.008729,-0.148238,0.003223,-0.015923,0.024056,-0.013957,0.294552,0.662025,-0.586370,0.095599,-0.006382,-0.021391,1.000000,-0.000080,0.000120,-0.000070,0.999994,-0.000682,0.001281,0.003123,-0.077747,0.147070,0.357817,0.999977,0.006245,-0.002567,-0.006249,0.999980,-0.001357,0.002558,0.001373,0.999996
05157,2,0,-57.0000,9.558019,-0.710971,-2.084718,0.028460,-0.059517,-0.004379,-0.022696,0.018512,-0.016579,0.283254,0.659700,-0.583512,0.095578,-0.007120,-0.020855,1.000000,-0.000113,0.000093,-0.000083,0.999995,-0.000742,0.001175,0.002996,-0.084590,0.134904,0.343183,0.999979,0.005990,-0.002355,-0.005993,0.999981,-0.001476,0.002346,0.001490,0.999996
05158,2,0,-57.0000,9.545332,-0.747242,-2.070214,0.024191,-0.019584,-0.016946,-0.017744,0.015008,-0.011165,0.284199,0.659423,-0.591497,0.095451,-0.007480,-0.020709,1.000000,-0.000089,0.000075,-0.000056,0.999995,-0.000776,0.001095,0.002890,-0.088609,0.125682,0.331066,0.999981,0.005778,-0.002194,-0.005782,0.999982,-0.001547,0.002185,0.001559,0.999996
05159,2,0,-57.0000,9.549384,-0.818752,-2.094590,-0.023520,0.038929,-0.002166,-0.012490,0.012442,-0.008293,0.291821,0.656760,-0.588496,0.095492,-0.008193,-0.020951,1.000000,-0.000062,0.000062,-0.000041,0.999995,-0.000796,0.001031,0.002804,-0.090866,0.118371,0.321271,0.999982,0.005607,-0.002066,-0.005610,0.999983,-0.001586,0.002057,0.001597,0.999997
05160,2,0,-57.0000,9.562002,-0.771901,-2.129647,-0.037168,-0.017188,0.013880,-0.000590,0.009829,-0.004987,0.280371,0.662267,-0.589361,0.095619,-0.007721,-0.021301,1.000000,-0.000003,0.000049,-0.000025,0.999995,-0.000792,0.000986,0.002778,-0.090453,0.113191,0.318217,0.999983,0.005554,-0.001976,-0.005557,0.999983,-0.001579,0.001967,0.001590,0.999997
05161,2,0,-57.0000,9.601289,-0.757412,-2.047464,0.050805,-0.001519,0.033528,-0.000413,0.008585,0.002738,0.281771,0.664840,-0.585926,0.096012,-0.007573,-0.020479,1.000000,-0.000002,0.000043,0.000014,0.999995,-0.000754,0.000960,0.002748,-0.086108,0.110234,0.314769,0.999983,0.005494,-0.001924,-0.005497,0.999984,-0.001503,0.001916,0.001513,0.999997
05162,2,0,-57.0000,9.583000,-0.706745,-2.054164,0.057844,-0.051896,0.013142,-0.002710,0.007391,0.001530,0.288511,0.660918,-0.584224,0.095829,-0.007067,-0.020545,1.000000,-0.000014,0.000037,0.000008,0.999996,-0.000727,0.000938,0.002705,-0.083052,0.107680,0.309853,0.999984,0.005408,-0.001879,-0.005411,0.999984,-0.001450,0.001872,0.001460,0.999997
05163,2,0,-57.0000,9.602344,-0.765919,-2.023048,0.069483,0.013883,0.030043,-0.001807,0.006064,0.005172,0.282974,0.662958,-0.586203,0.096023,-0.007657,-0.020233,1.000000,-0.000009,0.000030,0.000026,0.999996,-0.000686,0.000928,0.002658,-0.078310,0.106606,0.304531,0.999984,0.005315,-0.001861,-0.005318,0.999985,-0.001367,0.001853,0.001377,0.999997
05164,2,0,-57.0000,9.555239,-0.767456,-2.073400,0.012746,-0.003593,-0.005017,-0.004841,-0.002607,0.006849,0.291694,0.665443,-0.583706,0.095553,-0.007672,-0.020733,1.000000,-0.000024,-0.000013,0.000034,0.999996,-0.000655,0.000962,0.002603,-0.074731,0.110489,0.298233,0.999985,0.005205,-0.001928,-0.005208,0.999986,-0.001304,0.001922,0.001314,0.999997
05165,2,0,-57.0000,9.573555,-0.819136,-2.066149,0.006109,0.046408,0.015370,-0.000551,-0.001160,0.011807,0.281327,0.669894,-0.582817,0.095736,-0.008186,-0.020661,1.000000,-0.000003,-0.000006,0.000059,0.999996,-0.000595,0.000999,0.002562,-0.067834,0.114684,0.293489,0.999985,0.005122,-0.002002,-0.005125,0.999986,-0.001184,0.001996,0.001194,0.999997
05166,2,0,-57.0000,9.578567,-0.769071,-2.048381,0.041603,0.004668,0.012511,0.008393,-0.000014,0.013454,0.284442,0.664792,-0.586041,0.095786,-0.007683,-0.020484,1.000000,0.000042,-0.000000,0.000067,0.999996,-0.000514,0.001033,0.002563,-0.058576,0.118526,0.293666,0.999985,0.005125,-0.002069,-0.005128,0.999986,-0.001022,0.002063,0.001033,0.999997
05167,2,0,-57.0000,9.585636,-0.775899,-2.102377,-0.007364,-0.009870,0.031411,0.005909,-0.004113,0.015782,0.281640,0.661896,-0.585645,0.095857,-0.007751,-0.021022,1.000000,0.000030,-0.000021,0.000079,0.999996,-0.000434,0.001090,0.002535,-0.049434,0.125041,0.290482,0.999985,0.005070,-0.002182,-0.005072,0.999987,-0.000863,0.002178,0.000874,0.999997
05168,2,0,-57.0000,9.586239,-0.785621,-2.079593,0.011123,0.005718,0.027929,0.009720,-0.002364,0.015556,0.283427,0.660502,-0.586057,0.095863,-0.007848,-0.020795,1.000000,0.000049,-0.000012,0.000078,0.999996,-0.000346,0.001139,0.002542,-0.039371,0.130569,0.291253,0.999984,0.005083,-0.002279,-0.005085,0.999987,-0.000687,0.002275,0.000699,0.999997
05169,2,0,-58.0000,9.585321,-0.779298,-2.102556,-0.006990,-0.010260,0.031411,0.010272,0.002208,0.016209,0.287033,0.660461,-0.591400,0.095854,-0.007784,-0.021027,1.000000,0.000051,0.000011,0.000081,0.999996,-0.000247,0.001167,0.002541,-0.028007,0.133747,0.291182,0.999984,0.005082,-0.002334,-0.005083,0.999987,-0.000489,0.002332,0.000501,0.999997
05170,2,0,-58.0000,9.546133,-0.795393,-2.183669,-0.094598,-0.026291,0.011776,0.006462,0.000461,0.016437,0.288692,0.660264,-0.588024,0.095462,-0.007945,-0.021837,1.000000,0.000032,0.000002,0.000082,0.999996,-0.000154,0.001203,0.002530,-0.017351,0.137940,0.289902,0.999984,0.005060,-0.002407,-0.005060,0.999987,-0.000303,0.002406,0.000315,0.999997
05171,2,0,-58.0000,9.563105,-0.799296,-2.081579,0.001524,0.012271,0.006919,-0.002787,-0.001622,0.017332,0.289217,0.662924,-0.589398,0.095632,-0.007985,-0.020815,1.000000,-0.000014,-0.000008,0.000087,0.999996,-0.000071,0.001252,0.002479,-0.007753,0.143457,0.284100,0.999985,0.004958,-0.002504,-0.004959,0.999988,-0.000135,0.002503,0.000148,0.999997
05172,2,0,-58.0000,9.593730,-0.805575,-2.110276,-0.018974,0.006336,0.043349,-0.006830,0.000562,0.015564,0.285890,0.662516,-0.592890,0.095938,-0.008049,-0.021103,1.000000,-0.000034,0.000003,0.000078,0.999996,0.000003,0.001286,0.002404,0.000737,0.147418,0.275501,0.999985,0.004808,-0.002573,-0.004808,0.999988,0.000013,0.002573,-0.000000,0.999997
05173,2,0,-58.0000,9.578482,-0.787941,-2.025326,0.061237,0.019070,0.009023,-0.006455,0.006373,0.008487,0.285746,0.666625,-0.586592,0.095785,-0.007876,-0.020256,1.000000,-0.000032,0.000032,0.000042,0.999996,0.000056,0.001282,0.002337,0.006795,0.146844,0.267854,0.999986,0.004675,-0.002563,-0.004675,0.999989,0.000119,0.002563,-0.000107,0.999997
05174,2,0,-58.0000,9.584167,-0.777772,-2.124845,-0.024335,-0.027044,0.034893,-0.008636,0.003215,0.008276,0.280752,0.663896,-0.588447,0.095842,-0.007775,-0.021250,1.000000,-0.000043,0.000016,0.000041,0.999997,0.000100,0.001291,0.002260,0.011771,0.147906,0.259004,0.999986,0.004520,-0.002581,-0.004520,0.999990,0.000205,0.002582,-0.000194,0.999997
05175,2,0,-58.0000,9.570951,-0.816434,-2.111667,-0.028571,0.012916,0.022343,-0.008519,0.001250,0.009274,0.288496,0.666176,-0.584721,0.095710,-0.008161,-0.021117,1.000000,-0.000043,0.000006,0.000046,0.999997,0.000144,0.001311,0.002171,0.016800,0.150207,0.248768,0.999987,0.004342,-0.002622,-0.004341,0.999991,0.000293,0.002623,-0.000282,0.999997
05176,2,0,-58.0000,9.603291,-0.697852,-2.096785,0.034042,-0.093343,0.041085,-0.010147,0.002663,0.009714,0.288453,0.661924,-0.593231,0.096033,-0.006975,-0.020969,1.000000,-0.000051,0.000013,0.000049,0.999997,0.000191,0.001326,0.002085,0.022220,0.151859,0.238926,0.999988,0.004170,-0.002650,-0.004169,0.999991,0.000388,0.002652,-0.000377,0.999996
05177,2,0,-58.0000,9.584123,-0.779922,-2.124256,-0.023758,-0.027606,0.034893,-0.016544,0.006348,0.012472,0.282903,0.664162,-0.591449,0.095841,-0.007795,-0.021245,1.000000,-0.000083,0.000032,0.000062,0.999997,0.000250,0.001328,0.001965,0.028935,0.152170,0.225189,0.999989,0.003930,-0.002656,-0.003929,0.999992,0.000505,0.002658,-0.000495,0.999996
05178,2,0,-58.0000,9.562927,-0.805448,-2.080022,0.002870,0.010912,0.006920,-0.007848,0.003857,0.010926,0.284099,0.666625,-0.593729,0.095629,-0.008050,-0.020802,1.000000,-0.000039,0.000019,0.000055,0.999997,0.000307,0.001340,0.001888,0.035523,0.153430,0.216431,0.999989,0.003777,-0.002678,-0.003776,0.999993,0.000620,0.002680,-0.000610,0.999996
05179,2,0,-58.0000,9.585741,-0.798125,-2.077126,0.013221,0.003545,0.027927,-0.004628,0.011287,0.016982,0.285659,0.658116,-0.594340,0.095857,-0.007974,-0.020776,1.000000,-0.000023,0.000056,0.000085,0.999997,0.000409,0.001326,0.001808,0.047192,0.151878,0.207254,0.999990,0.003617,-0.002651,-0.003615,0.999993,0.000824,0.002654,-0.000814,0.999996
05180,2,0,-58.0000,9.554367,-0.786422,-2.070312,0.015791,-0.006688,-0.005023,-0.005341,0.015520,0.009800,0.290520,0.656179,-0.581180,0.095542,-0.007860,-0.020710,1.000000,-0.000027,0.000078,0.000049,0.999998,0.000485,0.001281,0.001740,0.055824,0.146662,0.199493,0.999991,0.003482,-0.002560,-0.003479,0.999993,0.000974,0.002563,-0.000965,0.999996
05181,2,0,-58.0000,9.557319,-0.851988,-2.117859,-0.050129,0.036103,0.013286,-0.007292,0.008431,0.011582,0.288757,0.659980,-0.590545,0.095573,-0.008515,-0.021182,1.000000,-0.000036,0.000042,0.000058,0.999998,0.000555,0.001272,0.001676,0.063809,0.145686,0.192144,0.999991,0.003354,-0.002543,-0.003351,0.999994,0.001114,0.002546,-0.001105,0.999996
05182,2,0,-58.0000,9.586166,-0.800990,-2.074058,0.013807,0.002941,0.027926,0.000501,0.007263,0.006390,0.283675,0.663156,-0.579350,0.095861,-0.008007,-0.020744,1.000000,0.000003,0.000036,0.000032,0.999998,0.000607,0.001259,0.001644,0.069792,0.144199,0.188436,0.999991,0.003289,-0.002517,-0.003286,0.999994,0.001218,0.002521,-0.001210,0.999996
05183,2,0,-58.0000,9.580991,-0.852842,-2.091447,-0.021250,0.044337,0.030811,0.000366,0.001666,0.004192,0.281769,0.670531,-0.591438,0.095810,-0.008526,-0.020915,1.000000,0.000002,0.000008,0.000021,0.999998,0.000638,0.001269,0.001616,0.073395,0.145355,0.185252,0.999992,0.003233,-0.002537,-0.003230,0.999994,0.001281,0.002541,-0.001273,0.999996
05184,2,0,-58.0000,9.600953,-0.780256,-2.040451,0.055229,-0.006037,0.033502,0.003987,0.000505,0.007505,0.281821,0.662408,-0.581678,0.096010,-0.007799,-0.020405,1.000000,0.000020,0.000003,0.000038,0.999998,0.000688,0.001290,0.001602,0.079077,0.147713,0.183669,0.999992,0.003206,-0.002578,-0.003202,0.999994,0.001380,0.002582,-0.001372,0.999996
05185,2,0,-58.0000,9.557383,-0.854561,-2.116537,-0.049344,0.035379,0.013292,0.003201,-0.000134,0.004857,0.281800,0.662274,-0.592447,0.095574,-0.008543,-0.021165,1.000000,0.000016,-0.000001,0.000024,0.999998,0.000722,0.001309,0.001571,0.082975,0.149873,0.180164,0.999992,0.003144,-0.002616,-0.003141,0.999994,0.001448,0.002620,-0.001440,0.999996
05186,2,0,-58.0000,9.561783,-0.795827,-2.121806,-0.032207,-0.022163,0.013887,0.009962,-0.002156,0.006292,0.282415,0.664958,-0.587578,0.095618,-0.007954,-0.021217,1.000000,0.000050,-0.000011,0.000031,0.999998,0.000768,0.001340,0.001589,0.088277,0.153406,0.182186,0.999991,0.003180,-0.002677,-0.003176,0.999994,0.001541,0.002682,-0.001532,0.999995
05187,2,0,-58.0000,9.599180,-0.766025,-2.086957,0.019168,-0.038138,0.040465,0.009040,-0.008393,0.001447,0.292116,0.659704,-0.588063,0.095993,-0.007659,-0.020866,1.000000,0.000045,-0.000042,0.000007,0.999997,0.000780,0.001391,0.001599,0.089682,0.159253,0.183393,0.999991,0.003201,-0.002779,-0.003196,0.999994,0.001565,0.002784,-0.001556,0.999995
05188,2,0,-58.0000,9.624658,-0.822797,-2.133412,-0.036575,-0.002484,0.079792,0.018563,0.004879,0.004950,0.278626,0.654033,-0.592216,0.096246,-0.008224,-0.021337,1.000000,0.000093,0.000024,0.000025,0.999997,0.000842,0.001387,0.001657,0.096796,0.158737,0.190051,0.999991,0.003317,-0.002770,-0.003312,0.999993,0.001689,0.002776,-0.001680,0.999995
05189,2,0,-58.0000,9.584325,-0.789587,-2.119770,-0.021475,-0.029941,0.034891,0.027184,-0.002484,0.007945,0.291847,0.658704,-0.589754,0.095844,-0.007889,-0.021198,1.000000,0.000136,-0.000012,0.000040,0.999997,0.000916,0.001422,0.001764,0.105278,0.162768,0.202303,0.999990,0.003531,-0.002841,-0.003526,0.999992,0.001837,0.002847,-0.001827,0.999994
05190,2,0,-58.0000,9.568196,-0.764008,-2.058276,0.040419,-0.033021,0.004026,0.015519,-0.003786,0.006629,0.285492,0.660918,-0.597308,0.095683,-0.007635,-0.020582,1.000000,0.000078,-0.000019,0.000033,0.999997,0.000967,0.001461,0.001809,0.111159,0.167235,0.207464,0.999989,0.003621,-0.002919,-0.003615,0.999992,0.001940,0.002926,-0.001930,0.999994
05191,2,0,-58.0000,9.585562,-0.807929,-2.074158,0.015540,0.001171,0.027924,0.019562,-0.005970,0.008401,0.286279,0.656369,-0.586465,0.095857,-0.008073,-0.020740,1.000000,0.000098,-0.000030,0.000042,0.999997,0.001029,0.001514,0.001882,0.118201,0.173259,0.215796,0.999988,0.003766,-0.003024,-0.003760,0.999991,0.002063,0.003032,-0.002052,0.999993
05192,2,0,-58.0000,9.570622,-0.830946,-2.107494,-0.025291,0.009595,0.022356,0.028029,-0.004533,0.004864,0.291407,0.656438,-0.580382,0.095707,-0.008304,-0.021074,1.000000,0.000140,-0.000023,0.000024,0.999996,0.001085,0.001553,0.001990,0.124648,0.177752,0.228190,0.999987,0.003983,-0.003102,-0.003976,0.999990,0.002176,0.003111,-0.002163,0.999993
05193,2,0,-58.0000,9.570467,-0.832077,-2.107750,-0.025075,0.009410,0.022356,0.033587,-0.006162,0.005202,0.283626,0.665044,-0.583347,0.095706,-0.008315,-0.021076,1.000000,0.000168,-0.000031,0.000026,0.999996,0.001145,0.001602,0.002136,0.131614,0.183321,0.245013,0.999986,0.004276,-0.003200,-0.004269,0.999988,0.002297,0.003209,-0.002283,0.999992
05194,2,0,-58.0000,9.581599,-0.738450,-2.049542,0.063912,-0.058210,0.013069,0.031174,-0.005387,0.002995,0.287284,0.659147,-0.590205,0.095817,-0.007380,-0.020494,1.000000,0.000156,-0.000027,0.000015,0.999995,0.001195,0.001642,0.002262,0.137330,0.187885,0.259428,0.999984,0.004528,-0.003279,-0.004520,0.999987,0.002397,0.003290,-0.002382,0.999992
05195,2,0,-58.0000,9.576947,-0.798787,-2.044578,0.047187,-0.001035,0.012487,0.021501,-0.006434,0.005431,0.279817,0.658119,-0.585976,0.095770,-0.007983,-0.020444,1.000000,0.000108,-0.000032,0.000027,0.999995,0.001242,0.001692,0.002333,0.142740,0.193557,0.267577,0.999983,0.004670,-0.003378,-0.004662,0.999986,0.002491,0.003390,-0.002475,0.999991
05196,2,0,-58.0000,9.574966,-0.923771,-2.088343,-0.035623,0.099169,0.030249,0.021250,-0.010068,0.002241,0.284753,0.664193,-0.586864,0.095751,-0.009234,-0.020880,1.000000,0.000106,-0.000050,0.000011,0.999995,0.001268,0.001753,0.002413,0.145843,0.200487,0.276762,0.999982,0.004830,-0.003499,-0.004821,0.999985,0.002545,0.003511,-0.002529,0.999991
05197,2,0,-58.0000,9.596824,-0.907616,-2.109720,-0.043576,0.076052,0.054736,0.035770,-0.006424,-0.007043,0.285766,0.662083,-0.588351,0.095969,-0.009076,-0.021096,1.000000,0.000179,-0.000032,-0.000035,0.999994,0.001275,0.001779,0.002560,0.146632,0.203532,0.293637,0.999981,0.005125,-0.003552,-0.005116,0.999984,0.002559,0.003565,-0.002541,0.999990
05198,2,0,-58.0000,9.591479,-0.959413,-2.127562,-0.078609,0.117460,0.057646,0.052585,-0.005705,-0.003832,0.278695,0.661402,-0.586469,0.095915,-0.009590,-0.021275,1.000000,0.000263,-0.000029,-0.000019,0.999994,0.001317,0.001809,0.002797,0.151529,0.206844,0.320840,0.999978,0.005600,-0.003610,-0.005590,0.999981,0.002645,0.003625,-0.002624,0.999990
05199,2,0,-58.0000,9.563295,-0.839006,-2.032429,0.043563,0.038350,-0.000046,0.053590,0.005413,-0.003530,0.286725,0.661146,-0.591579,0.095632,-0.008386,-0.020329,1.000000,0.000268,0.000027,-0.000018,0.999993,0.001381,0.001786,0.003021,0.158834,0.204214,0.346460,0.999975,0.006047,-0.003564,-0.006037,0.999978,0.002772,0.003581,-0.002751,0.999990
05200,2,0,-58.0000,9.566380,-0.764396,-2.083076,0.024015,-0.050718,0.007495,0.048153,0.005087,-0.002859,0.291002,0.656303,-0.592816,0.095663,-0.007640,-0.020835,1.000000,0.000241,0.000025,-0.000014,0.999992,0.001441,0.001767,0.003231,0.165791,0.201944,0.370564,0.999973,0.006467,-0.003525,-0.006457,0.999975,0.002894,0.003543,-0.002871,0.999990
05201,2,0,-57.0000,9.584042,-0.807948,-2.097566,-0.000844,-0.016508,0.031405,0.042598,0.006721,-0.003194,0.287270,0.659887,-0.586694,0.095840,-0.008077,-0.020981,1.000000,0.000213,0.000034,-0.000016,0.999992,0.001497,0.001740,0.003418,0.172264,0.198750,0.392000,0.999971,0.006842,-0.003469,-0.006831,0.999972,0.003007,0.003489,-0.002983,0.999989
05202,2,0,-58.0000,9.612020,-0.888792,-2.073535,-0.001579,0.066437,0.060306,0.039880,0.006559,-0.002858,0.285912,0.652283,-0.589136,0.096119,-0.008885,-0.020740,1.000000,0.000199,0.000033,-0.000014,0.999991,0.001551,0.001713,0.003588,0.178428,0.195700,0.411415,0.999968,0.007180,-0.003416,-0.007170,0.999969,0.003114,0.003438,-0.003090,0.999989
05203,2,0,-57.0000,9.530048,-0.804840,-2.092289,-0.008278,-0.019742,-0.022550,0.050470,0.006311,-0.001622,0.290643,0.661679,-0.599248,0.095300,-0.008044,-0.020928,1.000000,0.000252,0.000032,-0.000008,0.999990,0.001622,0.001691,0.003808,0.186605,0.193022,0.436711,0.999965,0.007622,-0.003369,-0.007611,0.999966,0.003257,0.003394,-0.003231,0.999989
05204,2,0,-57.0000,9.556586,-0.729637,-2.118307,0.000651,-0.100240,0.002499,0.034957,-0.004326,-0.003905,0.292385,0.666394,-0.591883,0.095566,-0.007295,-0.021182,1.000000,0.000175,-0.000022,-0.000020,0.999989,0.001646,0.001713,0.003959,0.189428,0.195595,0.454019,0.999963,0.007924,-0.003414,-0.007913,0.999963,0.003306,0.003440,-0.003279,0.999989
05205,2,0,-58.0000,9.556307,-0.870479,-2.114906,-0.045455,0.031503,0.013324,0.036537,-0.003023,0.001396,0.289964,0.655926,-0.589821,0.095563,-0.008700,-0.021149,1.000000,0.000183,-0.000015,0.000007,0.999989,0.001699,0.001740,0.004111,0.195511,0.198568,0.471418,0.999960,0.008228,-0.003466,-0.008216,0.999960,0.003412,0.003494,-0.003384,0.999988
05206,2,0,-58.0000,9.552699,-0.798214,-2.089957,0.002470,-0.027519,-0.001553,0.026908,-0.006792,-0.001909,0.286844,0.657974,-0.590604,0.095528,-0.007980,-0.020897,1.000000,0.000135,-0.000034,-0.000010,0.999988,0.001719,0.001778,0.004222,0.197837,0.202879,0.484110,0.999958,0.008449,-0.003541,-0.008437,0.999958,0.003453,0.003570,-0.003423,0.999988
05207,2,0,-58.0000,9.560565,-0.812157,-2.121107,-0.028183,-0.026258,0.013890,0.029633,-0.006618,-0.002233,0.289831,0.660382,-0.587535,0.095606,-0.008119,-0.021209,1.000000,0.000148,-0.000033,-0.000011,0.999987,0.001741,0.001814,0.004347,0.200436,0.207033,0.498465,0.999956,0.008700,-0.003613,-0.008687,0.999956,0.003498,0.003644,-0.003467,0.999987
05208,2,0,-57.0000,9.545655,-0.834698,-2.154381,-0.069009,-0.017794,0.008337,0.023767,-0.005926,-0.000036,0.297183,0.659528,-0.597751,0.095457,-0.008344,-0.021542,1.000000,0.000119,-0.000030,-0.000000,0.999987,0.001768,0.001852,0.004440,0.203501,0.211267,0.509138,0.999954,0.008886,-0.003687,-0.008873,0.999954,0.003552,0.003719,-0.003519,0.999987
05209,2,0,-57.0000,9.569873,-0.842334,-2.106373,-0.021976,0.006312,0.022366,0.014272,-0.004097,-0.001166,0.295245,0.653311,-0.585277,0.095699,-0.008422,-0.021062,1.000000,0.000071,-0.000020,-0.000006,0.999987,0.001782,0.001879,0.004494,0.205126,0.214386,0.515309,0.999953,0.008994,-0.003742,-0.008980,0.999953,0.003580,0.003774,-0.003546,0.999987
05210,2,0,-58.0000,9.553080,-0.807359,-2.068187,0.021577,-0.012563,-0.005040,0.010223,-0.001927,-0.002952,0.285750,0.652370,-0.590853,0.095531,-0.008074,-0.020681,1.000000,0.000051,-0.000010,-0.000015,0.999986,0.001786,0.001892,0.004522,0.205688,0.215912,0.518579,0.999952,0.009051,-0.003768,-0.009037,0.999953,0.003590,0.003801,-0.003556,0.999986
05211,2,0,-57.0000,9.547806,-0.858581,-2.085816,-0.013423,0.028852,-0.002113,0.001262,-0.003093,-0.004618,0.288222,0.660413,-0.597938,0.095478,-0.008588,-0.020857,1.000000,0.000006,-0.000015,-0.000023,0.999986,0.001772,0.001909,0.004518,0.204054,0.217794,0.518152,0.999952,0.009043,-0.003801,-0.009030,0.999953,0.003561,0.003833,-0.003527,0.999986
05212,2,0,-57.0000,9.568273,-0.825663,-2.153116,-0.058047,-0.025773,0.029337,-0.007930,-0.000336,-0.008294,0.284671,0.653591,-0.585342,0.095682,-0.008261,-0.021531,1.000000,-0.000040,-0.000002,-0.000041,0.999987,0.001735,0.001905,0.004463,0.199766,0.217416,0.511852,0.999953,0.008933,-0.003795,-0.008920,0.999954,0.003487,0.003826,-0.003453,0.999987
05213,2,0,-57.0000,9.591937,-0.823986,-2.127766,-0.029362,-0.017431,0.046848,-0.005438,0.003758,-0.010631,0.287719,0.655549,-0.592059,0.095919,-0.008246,-0.021279,1.000000,-0.000027,0.000019,-0.000053,0.999987,0.001698,0.001878,0.004416,0.195479,0.214307,0.506461,0.999954,0.008839,-0.003740,-0.008826,0.999955,0.003412,0.003770,-0.003379,0.999987
05214,2,0,-57.0000,9.606988,-0.800570,-2.094171,0.011845,-0.026294,0.052395,-0.003178,0.011777,-0.014978,0.286933,0.655580,-0.598893,0.096068,-0.008013,-0.020947,1.000000,-0.000016,0.000059,-0.000075,0.999987,0.001656,0.001806,0.004387,0.190721,0.206072,0.503041,0.999955,0.008780,-0.003597,-0.008768,0.999956,0.003329,0.003626,-0.003297,0.999988
05215,2,0,-57.0000,9.575022,-0.778465,-2.110656,-0.003971,-0.052288,0.022920,-0.009772,0.012565,-0.008700,0.284398,0.662249,-0.587033,0.095749,-0.007790,-0.021112,1.000000,-0.000049,0.000063,-0.000043,0.999988,0.001640,0.001740,0.004319,0.188751,0.198619,0.495203,0.999957,0.008643,-0.003467,-0.008631,0.999957,0.003294,0.003495,-0.003264,0.999989
05216,2,0,-57.0000,9.561347,-0.807479,-2.119369,-0.026462,-0.028067,0.013890,-0.011286,0.012014,-0.007263,0.290896,0.662782,-0.583521,0.095612,-0.008079,-0.021199,1.000000,-0.000056,0.000060,-0.000036,0.999988,0.001625,0.001681,0.004241,0.187006,0.191840,0.486322,0.999958,0.008488,-0.003348,-0.008477,0.999959,0.003264,0.003376,-0.003235,0.999989
05217,2,0,-57.0000,9.571214,-0.835850,-2.102860,-0.020435,0.004735,0.022370,-0.012494,0.012395,-0.008370,0.289628,0.662066,-0.586737,0.095710,-0.008364,-0.021034,1.000000,-0.000062,0.000062,-0.000042,0.999989,0.001602,0.001618,0.004149,0.184389,0.184698,0.475722,0.999960,0.008303,-0.003224,-0.008292,0.999960,0.003218,0.003250,-0.003191,0.999990
05218,2,0,-58.0000,9.553919,-0.792041,-2.086724,0.004772,-0.029894,-0.001561,-0.006698,0.006854,-0.006010,0.283595,0.655992,-0.590606,0.095538,-0.007924,-0.020870,1.000000,-0.000033,0.000034,-0.000030,0.999989,0.001589,0.001585,0.004095,0.182878,0.180929,0.469496,0.999961,0.008194,-0.003158,-0.008184,0.999961,0.003192,0.003184,-0.003166,0.999990
05219,2,0,-57.0000,9.580418,-0.855564,-2.109274,-0.032554,0.021571,0.034338,-0.018264,0.003554,-0.006346,0.284405,0.664218,-0.582525,0.095804,-0.008561,-0.021094,1.000000,-0.000091,0.000018,-0.000032,0.999990,0.001556,0.001567,0.003980,0.178994,0.178883,0.456376,0.999963,0.007965,-0.003122,-0.007955,0.999963,0.003124,0.003147,-0.003099,0.999990
05220,2,0,-57.0000,9.571755,-0.833124,-2.101478,-0.019856,0.004159,0.022372,-0.013909,0.002317,-0.007103,0.291181,0.659074,-0.590853,0.095717,-0.008336,-0.021015,1.000000,-0.000070,0.000012,-0.000036,0.999990,0.001522,0.001553,0.003894,0.175076,0.177334,0.446470,0.999965,0.007792,-0.003095,-0.007783,0.999965,0.003056,0.003119,-0.003031,0.999991
05221,2,0,-57.0000,9.580688,-0.853778,-2.108771,-0.032156,0.021209,0.034340,-0.012566,0.007543,-0.003814,0.286598,0.661720,-0.595809,0.095806,-0.008541,-0.021091,1.000000,-0.000063,0.000038,-0.000019,0.999990,0.001512,0.001522,0.003802,0.173937,0.173711,0.435949,0.999966,0.007609,-0.003032,-0.007599,0.999967,0.003036,0.003055,-0.003013,0.999991
05222,2,0,-58.0000,9.593388,-0.806982,-2.144343,-0.045964,-0.034881,0.050334,-0.001847,0.009447,-0.012855,0.285720,0.657195,-0.586336,0.095932,-0.008076,-0.021448,1.000000,-0.000009,0.000047,-0.000064,0.999991,0.001478,0.001464,0.003778,0.170003,0.167152,0.433130,0.999967,0.007559,-0.002917,-0.007551,0.999967,0.002967,0.002940,-0.002945,0.999991
05223,2,0,-57.0000,9.595299,-0.821831,-2.096827,-0.009099,-0.003609,0.043365,0.001259,0.018867,-0.007816,0.289242,0.663775,-0.580885,0.095951,-0.008222,-0.020977,1.000000,0.000006,0.000094,-0.000039,0.999991,0.001487,0.001372,0.003754,0.170993,0.156544,0.430446,0.999968,0.007513,-0.002732,-0.007504,0.999967,0.002984,0.002755,-0.002964,0.999992
05224,2,0,-58.0000,9.568768,-0.748578,-2.094557,0.010253,-0.071200,0.010942,-0.005302,0.031333,-0.011640,0.288665,0.666269,-0.594282,0.095684,-0.007492,-0.020960,1.000000,-0.000027,0.000157,-0.000058,0.999991,0.001493,0.001214,0.003703,0.171570,0.138515,0.424519,0.999970,0.007409,-0.002418,-0.007402,0.999968,0.002994,0.002440,-0.002976,0.999993
05225,2,0,-57.0000,9.587877,-0.798103,-2.083765,0.003799,-0.021186,0.031395,-0.010862,0.032956,-0.011985,0.287700,0.662436,-0.593307,0.095875,-0.007988,-0.020853,1.000000,-0.000054,0.000165,-0.000060,0.999992,0.001492,0.001050,0.003617,0.171366,0.119646,0.414635,0.999972,0.007237,-0.002088,-0.007230,0.999969,0.002991,0.002110,-0.002976,0.999993
05226,2,0,-57.0000,9.565124,-0.797378,-2.106108,-0.024522,-0.029906,0.013889,-0.016190,0.030653,-0.010326,0.285919,0.668601,-0.590641,0.095648,-0.007980,-0.021075,1.000000,-0.000081,0.000153,-0.000052,0.999992,0.001490,0.000898,0.003511,0.171083,0.102265,0.402503,0.999974,0.007025,-0.001785,-0.007020,0.999971,0.002986,0.001806,-0.002973,0.999994
05227,2,0,-58.0000,9.565757,-0.795964,-2.103766,-0.024330,-0.030084,0.013889,-0.020021,0.021331,-0.011284,0.286555,0.662689,-0.592041,0.095655,-0.007967,-0.021047,1.000000,-0.000100,0.000107,-0.000056,0.999993,0.001462,0.000788,0.003382,0.167871,0.089703,0.387634,0.999976,0.006765,-0.001566,-0.006761,0.999973,0.002930,0.001585,-0.002919,0.999994
05228,2,0,-58.0000,9.572139,-0.751196,-2.061307,0.029364,-0.056204,0.007450,-0.022266,0.020876,-0.005766,0.282950,0.655874,-0.588954,0.095719,-0.007517,-0.020622,1.000000,-0.000111,0.000104,-0.000029,0.999993,0.001457,0.000690,0.003246,0.167253,0.078496,0.372026,0.999978,0.006493,-0.001370,-0.006489,0.999975,0.002919,0.001389,-0.002910,0.999995
05229,2,0,-57.0000,9.598229,-0.806479,-2.105991,-0.026273,-0.020465,0.046851,-0.026096,0.011553,-0.006728,0.277705,0.663654,-0.583484,0.095981,-0.008071,-0.021064,1.000000,-0.000130,0.000058,-0.000034,0.999994,0.001428,0.000633,0.003092,0.163811,0.072083,0.354414,0.999980,0.006186,-0.001258,-0.006182,0.999977,0.002859,0.001276,-0.002851,0.999995
05230,2,0,-58.0000,9.616187,-0.848180,-2.120279,-0.051066,0.013786,0.070797,-0.026632,0.014551,-0.006185,0.290890,0.659105,-0.595547,0.096160,-0.008488,-0.021209,1.000000,-0.000133,0.000073,-0.000031,0.999995,0.001405,0.000564,0.002938,0.161162,0.064185,0.336718,0.999982,0.005877,-0.001120,-0.005874,0.999979,0.002813,0.001137,-0.002806,0.999995
05231,2,0,-57.0000,9.585720,-0.842279,-2.090448,-0.030206,0.019318,0.034350,-0.019308,0.017129,-0.004078,0.290490,0.657500,-0.590694,0.095855,-0.008427,-0.020912,1.000000,-0.000097,0.000086,-0.000020,0.999995,0.001404,0.000487,0.002809,0.161020,0.055331,0.321999,0.999984,0.005620,-0.000966,-0.005617,0.999980,0.002810,0.000981,-0.002805,0.999996
05232,2,0,-57.0000,9.546406,-0.815194,-2.052934,0.003141,0.007616,-0.014071,-0.014839,0.013927,-0.003834,0.287908,0.653982,-0.597364,0.095462,-0.008155,-0.020535,1.000000,-0.000074,0.000070,-0.000019,0.999995,0.001404,0.000425,0.002710,0.161006,0.048227,0.310635,0.999985,0.005422,-0.000842,-0.005419,0.999981,0.002810,0.000857,-0.002805,0.999996
05233,2,0,-57.0000,9.596631,-0.738015,-2.052652,0.040490,-0.064433,0.028430,-0.016468,0.015340,-0.003399,0.276965,0.666857,-0.590580,0.095965,-0.007383,-0.020533,1.000000,-0.000082,0.000077,-0.000017,0.999996,0.001408,0.000357,0.002617,0.161474,0.040505,0.299888,0.999986,0.005234,-0.000707,-0.005232,0.999982,0.002818,0.000722,-0.002815,0.999996
05234,2,0,-57.0000,9.584431,-0.783138,-2.015357,0.054712,-0.008740,0.012444,-0.026396,0.010631,-0.004178,0.282451,0.660305,-0.594101,0.095843,-0.007836,-0.020158,1.000000,-0.000132,0.000053,-0.000021,0.999996,0.001388,0.000310,0.002463,0.159138,0.035114,0.282269,0.999988,0.004927,-0.000613,-0.004925,0.999984,0.002777,0.000627,-0.002774,0.999996
05235,2,0,-57.0000,9.556871,-0.842339,-2.034139,0.009571,0.039949,-0.005580,-0.032132,0.016927,0.000208,0.294539,0.665031,-0.594134,0.095567,-0.008427,-0.020348,1.000000,-0.000161,0.000085,0.000001,0.999996,0.001392,0.000240,0.002258,0.159575,0.027163,0.258758,0.999990,0.004516,-0.000474,-0.004515,0.999986,0.002785,0.000487,-0.002783,0.999996
05236,2,0,-57.0000,9.518298,-0.715911,-2.117689,-0.032040,-0.107766,-0.036058,-0.034558,0.010125,-0.003194,0.280485,0.656662,-0.584376,0.095182,-0.007164,-0.021180,1.000000,-0.000173,0.000051,-0.000016,0.999997,0.001366,0.000197,0.002063,0.156603,0.022254,0.236488,0.999991,0.004127,-0.000388,-0.004126,0.999988,0.002733,0.000400,-0.002732,0.999996
05237,2,0,-57.0000,9.606599,-0.756023,-2.056238,0.028761,-0.047991,0.040398,-0.035093,0.013125,-0.002646,0.285106,0.655141,-0.592458,0.096065,-0.007565,-0.020567,1.000000,-0.000175,0.000066,-0.000013,0.999997,0.001347,0.000142,0.001870,0.154391,0.015953,0.214284,0.999993,0.003740,-0.000278,-0.003739,0.999989,0.002695,0.000289,-0.002694,0.999996
05238,2,0,-57.0000,9.593091,-0.925309,-2.061823,-0.039766,0.108272,0.042332,-0.030721,0.019463,-0.002205,0.284667,0.659195,-0.589851,0.095929,-0.009257,-0.020626,1.000000,-0.000154,0.000097,-0.000011,0.999998,0.001346,0.000057,0.001689,0.154282,0.006236,0.193598,0.999994,0.003379,-0.000109,-0.003379,0.999991,0.002693,0.000118,-0.002692,0.999996
05239,2,0,-57.0000,9.572322,-0.841769,-2.160152,-0.106353,-0.004997,0.035807,-0.021233,0.017628,-0.001074,0.277261,0.668085,-0.588393,0.095721,-0.008420,-0.021609,1.000000,-0.000106,0.000088,-0.000005,0.999998,0.001359,-0.000017,0.001562,0.155716,-0.002246,0.178967,0.999995,0.003124,0.000039,-0.003124,0.999991,0.002718,-0.000031,-0.002718,0.999996
05240,2,0,-57.0000,9.584295,-0.754492,-2.077006,0.000812,-0.057102,0.022894,-0.011974,0.019725,-0.001939,0.281545,0.651411,-0.588630,0.095841,-0.007547,-0.020779,1.000000,-0.000060,0.000099,-0.000010,0.999998,0.001381,-0.000103,0.001472,0.158218,-0.012077,0.168702,0.999996,0.002944,0.000211,-0.002945,0.999992,0.002761,-0.000203,-0.002762,0.999996
05241,2,0,-57.0000,9.616333,-0.766885,-2.080491,-0.001311,-0.047290,0.055857,-0.025026,0.023455,0.000347,0.274636,0.652359,-0.586785,0.096161,-0.007671,-0.020815,1.000000,-0.000125,0.000117,0.000002,0.999998,0.001405,-0.000203,0.001308,0.160944,-0.023440,0.149852,0.999996,0.002615,0.000409,-0.002617,0.999993,0.002809,-0.000402,-0.002810,0.999996
05242,2,0,-57.0000,9.521978,-0.727792,-2.062601,0.005797,-0.077500,-0.043039,-0.020691,0.014641,-0.001613,0.281091,0.650979,-0.585518,0.095218,-0.007281,-0.020632,1.000000,-0.000103,0.000073,-0.000008,0.999998,0.001410,-0.000264,0.001178,0.161493,-0.030466,0.134921,0.999997,0.002355,0.000532,-0.002356,0.999993,0.002819,-0.000525,-0.002820,0.999996
05243,2,0,-57.0000,9.605032,-0.679764,-2.021774,0.077502,-0.108123,0.025432,-0.022959,0.006600,0.002699,0.287050,0.655833,-0.592155,0.096050,-0.006799,-0.020220,1.000000,-0.000115,0.000033,0.000013,0.999998,0.001418,-0.000281,0.001037,0.162503,-0.032331,0.118830,0.999998,0.002074,0.000564,-0.002076,0.999994,0.002836,-0.000558,-0.002837,0.999996
05244,2,0,-57.0000,9.545833,-0.726687,-2.035484,0.034693,-0.069418,-0.025544,-0.031641,0.016666,0.005430,0.282651,0.655103,-0.590388,0.095457,-0.007267,-0.020362,1.000000,-0.000158,0.000083,0.000027,0.999999,0.001447,-0.000339,0.000846,0.165726,-0.038992,0.096845,0.999998,0.001690,0.000681,-0.001692,0.999994,0.002892,-0.000676,-0.002894,0.999996
05245,2,0,-57.0000,9.641515,-0.773224,-2.027533,0.046338,-0.023915,0.069866,-0.036855,0.012395,0.008077,0.281922,0.656929,-0.590471,0.096414,-0.007732,-0.020280,1.000000,-0.000184,0.000062,0.000040,0.999999,0.001474,-0.000372,0.000640,0.168938,-0.042753,0.073310,0.999999,0.001279,0.000746,-0.001282,0.999995,0.002949,-0.000742,-0.002949,0.999995
05246,2,0,-57.0000,9.605768,-0.960149,-2.013036,-0.013947,0.155314,0.047366,-0.026392,0.014104,0.008323,0.275140,0.656680,-0.592414,0.096057,-0.009600,-0.020136,1.000000,-0.000132,0.000071,0.000042,0.999999,0.001517,-0.000413,0.000472,0.173842,-0.047460,0.054029,0.999999,0.000943,0.000828,-0.000945,0.999995,0.003034,-0.000825,-0.003035,0.999995
05247,2,0,-57.0000,9.590658,-0.834145,-2.070967,-0.027111,0.016095,0.034365,-0.012137,0.009985,0.007142,0.283210,0.658873,-0.586258,0.095906,-0.008339,-0.020714,1.000000,-0.000061,0.000050,0.000036,0.999999,0.001564,-0.000438,0.000375,0.179247,-0.050262,0.042945,0.999999,0.000750,0.000877,-0.000752,0.999995,0.003128,-0.000875,-0.003129,0.999995
05248,2,0,-57.0000,9.633280,-0.892743,-2.014001,0.013380,0.090268,0.068858,-0.015861,0.013115,0.002831,0.277540,0.652114,-0.589710,0.096332,-0.008928,-0.020146,1.000000,-0.000079,0.000066,0.000014,0.999999,0.001592,-0.000485,0.000265,0.182442,-0.055571,0.030248,0.999999,0.000528,0.000970,-0.000531,0.999995,0.003184,-0.000968,-0.003185,0.999994
05249,2,0,-57.0000,9.582949,-0.821002,-2.037967,0.004110,0.014177,0.018896,-0.017913,0.015559,0.004814,0.288300,0.661177,-0.588184,0.095828,-0.008210,-0.020386,1.000000,-0.000090,0.000078,0.000024,0.999999,0.001631,-0.000539,0.000146,0.186927,-0.061741,0.016601,0.999999,0.000290,0.001078,-0.000293,0.999995,0.003262,-0.001077,-0.003263,0.999994
05250,2,0,-57.0000,9.583851,-0.829054,-2.013795,0.022660,0.029690,0.015411,-0.019672,0.011368,0.003048,0.279556,0.662526,-0.595938,0.095837,-0.008291,-0.020143,1.000000,-0.000098,0.000057,0.000015,0.999998,0.001653,-0.000576,0.000017,0.189404,-0.066061,0.001833,0.999999,0.000032,0.001153,-0.000036,0.999995,0.003306,-0.001153,-0.003306,0.999994
05251,2,0,-57.0000,9.578962,-0.880587,-2.030649,-0.012247,0.071187,0.018400,-0.011042,0.011572,0.007260,0.272919,0.665725,-0.585637,0.095789,-0.008804,-0.020312,1.000000,-0.000055,0.000058,0.000036,0.999998,0.001704,-0.000607,-0.000069,0.195215,-0.069567,-0.008066,0.999999,-0.000141,0.001214,0.000137,0.999994,0.003407,-0.001215,-0.003407,0.999993
05252,2,0,-57.0000,9.560795,-0.830187,-2.037245,-0.005475,0.020816,-0.002085,-0.009413,0.010158,0.006823,0.287788,0.658320,-0.590572,0.095607,-0.008300,-0.020377,1.000000,-0.000047,0.000051,0.000034,0.999998,0.001752,-0.000633,-0.000152,0.200740,-0.072489,-0.017503,0.999999,-0.000305,0.001265,0.000301,0.999994,0.003504,-0.001266,-0.003503,0.999993
05253,2,0,-57.0000,9.588770,-0.770634,-2.016243,0.040010,-0.028295,0.015905,-0.005844,0.008271,0.003410,0.277068,0.667227,-0.588349,0.095887,-0.007705,-0.020166,1.000000,-0.000029,0.000041,0.000017,0.999998,0.001784,-0.000655,-0.000215,0.204455,-0.075034,-0.024754,0.999999,-0.000432,0.001310,0.000427,0.999994,0.003568,-0.001311,-0.003568,0.999993
05254,2,0,-57.0000,9.583785,-0.822399,-2.033467,0.005094,0.013204,0.018897,-0.011911,0.006052,0.009137,0.276170,0.661402,-0.597412,0.095838,-0.008221,-0.020337,1.000000,-0.000060,0.000030,0.000046,0.999998,0.001833,-0.000658,-0.000310,0.210057,-0.075279,-0.035668,0.999999,-0.000623,0.001314,0.000618,0.999993,0.003666,-0.001316,-0.003665,0.999992
05255,2,0,-57.0000,9.570576,-0.860944,-2.020028,0.001002,0.053187,0.006418,-0.004528,0.005914,0.005511,0.282801,0.664965,-0.595184,0.095705,-0.008607,-0.020203,1.000000,-0.000023,0.000030,0.000028,0.999998,0.001873,-0.000666,-0.000377,0.214645,-0.076244,-0.043355,0.999999,-0.000757,0.001331,0.000752,0.999993,0.003746,-0.001334,-0.003745,0.999992
05256,2,0,-57.0000,9.574401,-0.934088,-2.045082,-0.046369,0.111925,0.021404,0.004057,0.005388,0.002990,0.277031,0.663692,-0.599114,0.095744,-0.009339,-0.020454,1.000000,0.000020,0.000027,0.000015,0.999998,0.001910,-0.000676,-0.000388,0.218951,-0.077416,-0.044586,0.999999,-0.000778,0.001351,0.000773,0.999992,0.003821,-0.001354,-0.003820,0.999992
05257,2,0,-57.0000,9.569412,-0.845575,-2.065167,-0.035342,0.021369,0.013393,0.011661,0.001309,0.001350,0.283005,0.661021,-0.593978,0.095694,-0.008454,-0.020653,1.000000,0.000058,0.000007,0.000007,0.999998,0.001943,-0.000671,-0.000362,0.222626,-0.076775,-0.041622,0.999999,-0.000726,0.001340,0.000721,0.999992,0.003886,-0.001343,-0.003885,0.999992
05258,2,0,-57.0000,9.606734,-0.815598,-2.029475,0.016023,0.005164,0.039877,0.012865,0.000922,0.002457,0.280020,0.663297,-0.593790,0.096067,-0.008153,-0.020296,1.000000,0.000064,0.000005,0.000012,0.999998,0.001980,-0.000661,-0.000327,0.226898,-0.075683,-0.037659,0.999999,-0.000657,0.001321,0.000652,0.999992,0.003960,-0.001324,-0.003959,0.999991
05259,2,0,-57.0000,9.614872,-0.829535,-2.060244,-0.014604,0.006491,0.055354,0.013087,-0.003017,0.004444,0.274890,0.657451,-0.593358,0.096149,-0.008292,-0.020602,1.000000,0.000065,-0.000015,0.000022,0.999998,0.002020,-0.000629,-0.000291,0.231474,-0.072039,-0.033471,0.999999,-0.000584,0.001257,0.000579,0.999992,0.004040,-0.001260,-0.004039,0.999991
05260,2,0,-57.0000,9.608467,-0.841169,-1.960774,0.071511,0.051869,0.029418,0.017658,-0.008204,0.005670,0.275901,0.659309,-0.589332,0.096086,-0.008407,-0.019605,1.000000,0.000088,-0.000041,0.000028,0.999998,0.002061,-0.000571,-0.000233,0.236233,-0.065416,-0.026780,0.999999,-0.000467,0.001142,0.000463,0.999991,0.004123,-0.001144,-0.004123,0.999991
05261,2,0,-57.0000,9.633654,-0.749223,-2.033040,0.043493,-0.060103,0.061338,0.010841,-0.000058,-0.008033,0.284417,0.662848,-0.584782,0.096336,-0.007495,-0.020331,1.000000,0.000054,-0.000000,-0.000040,0.999998,0.002047,-0.000576,-0.000203,0.234615,-0.065982,-0.023415,0.999999,-0.000409,0.001152,0.000404,0.999992,0.004095,-0.001153,-0.004094,0.999991
05262,2,0,-57.0000,9.587052,-0.749706,-2.083079,-0.013401,-0.077221,0.026352,0.000003,0.014430,-0.004306,0.277237,0.654687,-0.593649,0.095869,-0.007499,-0.020838,1.000000,0.000000,0.000072,-0.000022,0.999998,0.002063,-0.000642,-0.000230,0.236380,-0.073471,-0.026470,0.999999,-0.000462,0.001282,0.000457,0.999991,0.004126,-0.001284,-0.004125,0.999991
05263,2,0,-57.0000,9.600627,-0.711110,-2.094863,-0.008940,-0.117594,0.038823,-0.005682,0.010456,-0.006857,0.280962,0.654355,-0.592003,0.096005,-0.007115,-0.020953,1.000000,-0.000028,0.000052,-0.000034,0.999998,0.002053,-0.000692,-0.000277,0.235267,-0.079273,-0.031870,0.999999,-0.000556,0.001384,0.000551,0.999991,0.004106,-0.001386,-0.004105,0.999991
05264,2,0,-57.0000,9.546468,-0.846463,-2.088320,-0.062530,0.011530,-0.004090,-0.004681,0.007158,-0.002219,0.273148,0.656240,-0.586692,0.095464,-0.008466,-0.020886,1.000000,-0.000023,0.000036,-0.000011,0.999998,0.002060,-0.000720,-0.000325,0.236084,-0.082432,-0.037442,0.999999,-0.000653,0.001439,0.000648,0.999991,0.004120,-0.001441,-0.004119,0.999990
05265,2,0,-57.0000,9.571275,-0.861796,-2.016352,0.002943,0.051177,0.006429,0.005645,0.003248,-0.004180,0.276111,0.660142,-0.595143,0.095712,-0.008619,-0.020165,1.000000,0.000028,0.000016,-0.000021,0.999998,0.002063,-0.000733,-0.000319,0.236473,-0.083923,-0.036769,0.999999,-0.000642,0.001465,0.000636,0.999991,0.004127,-0.001467,-0.004126,0.999990
05266,2,0,-57.0000,9.584648,-0.823507,-2.028946,0.007393,0.010796,0.018899,0.005645,0.003248,-0.004180,0.277992,0.655427,-0.586808,0.095846,-0.008236,-0.020291,1.000000,0.000028,0.000016,-0.000021,0.999998,0.002066,-0.000746,-0.000314,0.236815,-0.085411,-0.036154,0.999999,-0.000631,0.001491,0.000625,0.999991,0.004133,-0.001493,-0.004132,0.999990
05267,2,0,-57.0000,9.575842,-0.802031,-2.021094,0.020034,-0.006646,0.006904,0.005553,-0.001634,0.000345,0.282009,0.663100,-0.588987,0.095759,-0.008020,-0.020210,1.000000,0.000028,-0.000008,0.000002,0.999998,0.002082,-0.000728,-0.000314,0.238575,-0.083376,-0.036163,0.999999,-0.000631,0.001455,0.000625,0.999991,0.004164,-0.001458,-0.004163,0.999990
05268,2,0,-57.0000,9.584008,-0.815395,-2.052006,-0.010598,-0.005304,0.022386,0.004774,-0.002275,-0.002306,0.277035,0.665573,-0.593602,0.095840,-0.008155,-0.020519,1.000000,0.000024,-0.000011,-0.000012,0.999998,0.002083,-0.000712,-0.000313,0.238691,-0.081522,-0.035994,0.999999,-0.000628,0.001423,0.000622,0.999991,0.004166,-0.001425,-0.004165,0.999990
05269,2,0,-57.0000,9.598543,-0.793525,-2.018953,0.030596,-0.014279,0.027879,0.006646,-0.000051,0.000458,0.273230,0.660530,-0.590720,0.095985,-0.007934,-0.020190,1.000000,0.000033,-0.000000,0.000002,0.999997,0.002101,-0.000701,-0.000312,0.240831,-0.080263,-0.035889,0.999999,-0.000626,0.001401,0.000620,0.999991,0.004203,-0.001403,-0.004202,0.999990
05270,2,0,-57.0000,9.578275,-0.858868,-2.092872,-0.063652,0.020350,0.028891,0.012513,-0.000742,-0.001733,0.278880,0.664889,-0.586762,0.095783,-0.008588,-0.020929,1.000000,0.000063,-0.000004,-0.000009,0.999997,0.002116,-0.000691,-0.000274,0.242540,-0.079132,-0.031542,0.999999,-0.000551,0.001381,0.000545,0.999991,0.004233,-0.001383,-0.004232,0.999990
05271,2,0,-57.0000,9.573848,-0.918383,-2.087568,-0.080151,0.077599,0.028425,0.015234,-0.000573,-0.002057,0.273058,0.661443,-0.589929,0.095738,-0.009183,-0.020876,1.000000,0.000076,-0.000003,-0.000010,0.999997,0.002132,-0.000683,-0.000233,0.244343,-0.078162,-0.026893,0.999999,-0.000469,0.001364,0.000464,0.999991,0.004265,-0.001366,-0.004264,0.999990
05272,2,0,-57.0000,9.561926,-0.832422,-2.031019,-0.001625,0.016884,-0.002076,0.022863,0.002932,-0.002477,0.278536,0.668438,-0.596204,0.095619,-0.008323,-0.020313,1.000000,0.000114,0.000015,-0.000012,0.999997,0.002162,-0.000691,-0.000146,0.247716,-0.079175,-0.016855,0.999999,-0.000294,0.001382,0.000288,0.999991,0.004323,-0.001383,-0.004323,0.999990
05273,2,0,-57.0000,9.613159,-1.052940,-1.979337,-0.019282,0.240327,0.055502,0.028773,0.002973,0.002066,0.280749,0.660305,-0.601475,0.096131,-0.010526,-0.019796,1.000000,0.000144,0.000015,0.000010,0.999997,0.002218,-0.000693,-0.000048,0.254164,-0.079344,-0.005629,0.999999,-0.000098,0.001385,0.000092,0.999990,0.004436,-0.001385,-0.004436,0.999989
05274,2,0,-57.0000,9.594290,-0.994913,-2.009138,-0.030946,0.174267,0.038483,0.062955,0.005565,-0.003235,0.282980,0.663131,-0.588209,0.095942,-0.009944,-0.020097,1.000000,0.000315,0.000028,-0.000016,0.999997,0.002293,-0.000715,0.000235,0.262795,-0.082025,0.026756,0.999999,0.000467,0.001432,-0.000474,0.999989,0.004587,-0.001429,-0.004587,0.999988
05275,2,0,-57.0000,9.664553,-0.994277,-1.931986,0.054915,0.199364,0.090947,0.084722,-0.000638,-0.007004,0.277882,0.665172,-0.588286,0.096645,-0.009938,-0.019324,1.000000,0.000424,-0.000003,-0.000035,0.999997,0.002366,-0.000716,0.000632,0.271048,-0.082178,0.072186,0.999998,0.001260,0.001434,-0.001267,0.999988,0.004731,-0.001428,-0.004732,0.999988
05276,2,0,-57.0000,9.631737,-0.966536,-1.971935,0.020627,0.157800,0.064951,0.088241,0.000206,-0.004647,0.283865,0.650678,-0.591420,0.096317,-0.009659,-0.019724,1.000000,0.000441,0.000001,-0.000023,0.999996,0.002454,-0.000716,0.001041,0.281117,-0.082354,0.119114,0.999997,0.002079,0.001437,-0.002086,0.999986,0.004906,-0.001427,-0.004909,0.999987
05277,2,0,-57.0000,9.612760,-0.768686,-2.005455,0.054743,-0.040355,0.036844,0.101077,-0.007131,-0.010071,0.281650,0.654127,-0.589406,0.096128,-0.007682,-0.020055,1.000000,0.000505,-0.000036,-0.000050,0.999995,0.002519,-0.000692,0.001523,0.288528,-0.079701,0.174312,0.999994,0.003042,0.001391,-0.003049,0.999983,0.005036,-0.001376,-0.005040,0.999986
05278,2,0,-57.0000,9.625212,-0.723658,-2.042099,0.040786,-0.096430,0.052788,0.085160,-0.016743,-0.010855,0.280982,0.661896,-0.588500,0.096253,-0.007233,-0.020416,1.000000,0.000426,-0.000084,-0.000054,0.999995,0.002546,-0.000624,0.001931,0.291613,-0.072067,0.221080,0.999992,0.003859,0.001258,-0.003865,0.999980,0.005090,-0.001238,-0.005094,0.999986
