// General information: 
//  MT Manager version: 2020.3.0 
//  XDA version: 2020.3.0 build 5439 rev 106958 built on 2020-11-10
// Device information: 
//  DeviceId: 00B46A09
//  ProductCode: MTW2-3A7G6
//  Firmware Version: 4.4.0
//  Hardware Version: 2.0.0
// Device settings: 
//  Filter Profile: human(46.1)
//  Option Flags: Orientation Smoother Disabled, Position/Velocity Smoother Disabled, Continuous Zero Rotation Update Disabled, AHS Disabled, ICC Disabled
// Coordinate system: ENU
PacketCounter,StatusWord,ClippingFlags,RSSI,Acc_X,Acc_Y,Acc_Z,FreeAcc_E,FreeAcc_N,FreeAcc_U,Gyr_X,Gyr_Y,Gyr_Z,Mag_X,Mag_Y,Mag_Z,VelInc_X,VelInc_Y,VelInc_Z,OriInc_q0,OriInc_q1,OriInc_q2,OriInc_q3,Quat_q0,Quat_q1,Quat_q2,Quat_q3,Roll,Pitch,Yaw,Mat[1][1],Mat[2][1],Mat[3][1],Mat[1][2],Mat[2][2],Mat[3][2],Mat[1][3],Mat[2][3],Mat[3][3]
04938,2,0,-72.0000,9.521775,0.258517,-2.427155,-0.018047,-0.003029,0.016950,0.002916,-0.002470,0.002199,-0.406672,-0.517319,-0.632469,0.095218,0.002587,-0.024270,1.000000,0.000015,-0.000012,0.000011,0.999967,0.007873,0.000459,0.001733,0.902244,0.051005,0.199006,0.999994,0.003473,-0.000890,-0.003459,0.999870,0.015746,0.000945,-0.015743,0.999876
04939,2,0,-72.0000,9.486978,0.235377,-2.420503,-0.016331,0.018924,-0.018997,-0.000736,0.001867,-0.001686,-0.413234,-0.508663,-0.623002,0.094870,0.002353,-0.024206,1.000000,-0.000004,0.000009,-0.000008,0.999967,0.007876,0.000462,0.001696,0.902603,0.051403,0.194805,0.999994,0.003400,-0.000897,-0.003385,0.999870,0.015753,0.000951,-0.015750,0.999876
04940,2,0,-72.0000,9.502879,0.271259,-2.391630,0.009624,-0.021747,-0.009748,-0.000491,-0.001652,0.005233,-0.413589,-0.503936,-0.635756,0.095029,0.002715,-0.023916,1.000000,-0.000002,-0.000008,0.000026,0.999967,0.007914,0.000475,0.001670,0.907012,0.052858,0.191822,0.999994,0.003348,-0.000923,-0.003333,0.999869,0.015830,0.000975,-0.015827,0.999874
04941,2,0,-72.0000,9.536534,0.231237,-2.443124,-0.024786,0.025070,0.034473,-0.004525,0.000656,0.000718,-0.413947,-0.512996,-0.622822,0.095365,0.002312,-0.024432,1.000000,-0.000023,0.000003,0.000004,0.999967,0.007923,0.000480,0.001647,0.908025,0.053466,0.189199,0.999994,0.003302,-0.000933,-0.003287,0.999869,0.015847,0.000985,-0.015844,0.999874
04942,2,0,-72.0000,9.513788,0.240009,-2.441791,-0.030195,0.016194,0.012328,-0.001991,-0.003844,0.002287,-0.415887,-0.509867,-0.632656,0.095138,0.002401,-0.024416,1.000000,-0.000010,-0.000019,0.000011,0.999967,0.007947,0.000505,0.001617,0.910813,0.056450,0.185765,0.999994,0.003242,-0.000985,-0.003226,0.999868,0.015896,0.001037,-0.015893,0.999873
04943,2,0,-72.0000,9.509629,0.226059,-2.422262,-0.010078,0.026552,0.003152,-0.009050,0.001311,0.001437,-0.412444,-0.505339,-0.629246,0.095096,0.002260,-0.024223,1.000000,-0.000045,0.000007,0.000007,0.999967,0.007956,0.000506,0.001572,0.911821,0.056519,0.180540,0.999995,0.003151,-0.000986,-0.003135,0.999868,0.015914,0.001036,-0.015910,0.999873
04944,2,0,-72.0000,9.517574,0.244152,-2.407837,0.002986,0.006090,0.007774,-0.010877,-0.001982,0.001979,-0.409144,-0.518114,-0.631592,0.095176,0.002441,-0.024078,1.000000,-0.000054,-0.000010,0.000010,0.999967,0.007967,0.000523,0.001499,0.913014,0.058558,0.172241,0.999995,0.003006,-0.001022,-0.002989,0.999869,0.015934,0.001070,-0.015931,0.999873
04945,2,0,-72.0000,9.513744,0.240171,-2.441946,-0.029678,0.015413,0.012331,-0.010331,0.000599,0.000865,-0.423761,-0.515426,-0.636708,0.095137,0.002401,-0.024420,1.000000,-0.000052,0.000003,0.000004,0.999967,0.007971,0.000529,0.001428,0.913470,0.059351,0.164121,0.999995,0.002864,-0.001036,-0.002848,0.999869,0.015942,0.001081,-0.015939,0.999872
04946,2,0,-72.0000,9.497570,0.194704,-2.416929,-0.002455,0.056646,-0.010643,-0.008559,0.002964,-0.003796,-0.409531,-0.521565,-0.632753,0.094975,0.001944,-0.024171,1.000000,-0.000043,0.000015,-0.000019,0.999967,0.007952,0.000527,0.001375,0.911368,0.059115,0.157989,0.999996,0.002757,-0.001032,-0.002741,0.999870,0.015906,0.001075,-0.015903,0.999873
04947,2,0,-72.0000,9.544468,0.250014,-2.428672,-0.010862,0.003289,0.039099,-0.003626,-0.000661,0.000659,-0.411662,-0.512292,-0.638510,0.095445,0.002500,-0.024286,1.000000,-0.000018,-0.000003,0.000003,0.999967,0.007966,0.000538,0.001351,0.912938,0.060428,0.155342,0.999996,0.002711,-0.001055,-0.002694,0.999869,0.015933,0.001098,-0.015930,0.999873
04948,2,0,-72.0000,9.521820,0.258945,-2.426931,-0.016275,-0.005583,0.016952,-0.005778,0.005870,-0.000279,-0.413835,-0.515248,-0.628894,0.095217,0.002589,-0.024272,1.000000,-0.000029,0.000029,-0.000001,0.999967,0.007966,0.000518,0.001308,0.912884,0.058196,0.150305,0.999996,0.002623,-0.001016,-0.002607,0.999870,0.015932,0.001057,-0.015929,0.999873
04949,2,0,-72.0000,9.536671,0.232398,-2.442482,-0.023381,0.023004,0.034482,-0.001853,0.001705,-0.004001,-0.407444,-0.517228,-0.621445,0.095367,0.002322,-0.024426,1.000000,-0.000009,0.000009,-0.000020,0.999967,0.007956,0.000523,0.001289,0.911735,0.058746,0.148228,0.999996,0.002587,-0.001025,-0.002570,0.999870,0.015912,0.001066,-0.015909,0.999873
04950,2,0,-72.0000,9.501944,0.210017,-2.435498,-0.021713,0.044982,-0.001459,-0.010413,0.004670,-0.007798,-0.408696,-0.508436,-0.623395,0.095019,0.002095,-0.024357,1.000000,-0.000052,0.000023,-0.000039,0.999968,0.007915,0.000515,0.001232,0.907021,0.057937,0.141653,0.999996,0.002472,-0.001011,-0.002456,0.999872,0.015830,0.001050,-0.015827,0.999874
04951,2,0,-72.0000,9.514135,0.242679,-2.440174,-0.028627,0.013820,0.012337,-0.004552,0.005655,-0.003826,-0.411228,-0.518391,-0.634590,0.095141,0.002424,-0.024404,1.000000,-0.000023,0.000028,-0.000019,0.999968,0.007902,0.000499,0.001187,0.905602,0.056108,0.136484,0.999997,0.002382,-0.000979,-0.002366,0.999872,0.015805,0.001017,-0.015803,0.999875
04952,2,0,-72.0000,9.532829,0.220506,-2.421521,-0.002893,0.032821,0.025307,-0.001144,0.004838,-0.006859,-0.419113,-0.511579,-0.627056,0.095328,0.002202,-0.024218,1.000000,-0.000006,0.000024,-0.000034,0.999968,0.007877,0.000490,0.001174,0.902695,0.055035,0.134927,0.999997,0.002355,-0.000961,-0.002339,0.999873,0.015754,0.000998,-0.015752,0.999875
04953,2,0,-72.0000,9.491292,0.242957,-2.384098,0.018938,0.005718,-0.023551,0.002100,0.003469,-0.008148,-0.411446,-0.508032,-0.630506,0.094913,0.002426,-0.023843,1.000000,0.000010,0.000017,-0.000041,0.999968,0.007852,0.000487,0.001191,0.899851,0.054739,0.136887,0.999997,0.002389,-0.000955,-0.002374,0.999874,0.015705,0.000993,-0.015702,0.999876
04954,2,0,-72.0000,9.514024,0.234861,-2.385432,0.024702,0.014086,-0.001404,-0.003353,-0.000486,-0.006949,-0.413941,-0.510793,-0.629371,0.095140,0.002345,-0.023854,1.000000,-0.000017,-0.000002,-0.000035,0.999969,0.007828,0.000504,0.001166,0.897078,0.056702,0.134038,0.999997,0.002339,-0.000990,-0.002324,0.999875,0.015656,0.001026,-0.015654,0.999877
04955,2,0,-72.0000,9.532579,0.212588,-2.367346,0.050440,0.033091,0.011566,0.003408,-0.000817,-0.003033,-0.418394,-0.506483,-0.626734,0.095326,0.002125,-0.023673,1.000000,0.000017,-0.000004,-0.000015,0.999969,0.007831,0.000519,0.001180,0.897394,0.058440,0.135657,0.999997,0.002368,-0.001020,-0.002351,0.999875,0.015662,0.001057,-0.015659,0.999877
04956,2,0,-72.0000,9.544949,0.254494,-2.426316,-0.009295,0.000947,0.039101,0.009214,-0.000759,-0.003178,-0.413182,-0.513127,-0.634852,0.095450,0.002545,-0.024263,1.000000,0.000046,-0.000004,-0.000016,0.999968,0.007840,0.000534,0.001211,0.898484,0.060094,0.139256,0.999996,0.002430,-0.001049,-0.002414,0.999874,0.015681,0.001087,-0.015678,0.999876
04957,2,0,-72.0000,9.503636,0.286244,-2.443023,-0.040292,-0.027161,0.003983,0.004852,0.000448,-0.004206,-0.412869,-0.516701,-0.636190,0.095036,0.002861,-0.024430,1.000000,0.000024,0.000002,-0.000021,0.999968,0.007838,0.000543,0.001246,0.898249,0.061109,0.143310,0.999996,0.002501,-0.001067,-0.002484,0.999874,0.015677,0.001106,-0.015674,0.999877
04958,2,0,-72.0000,9.497109,0.341211,-2.466358,-0.072770,-0.077505,0.004803,0.001227,-0.000214,-0.003547,-0.411597,-0.513690,-0.630216,0.094971,0.003411,-0.024663,1.000000,0.000006,-0.000001,-0.000018,0.999968,0.007835,0.000556,0.001240,0.897960,0.062559,0.142532,0.999996,0.002488,-0.001092,-0.002470,0.999874,0.015672,0.001131,-0.015669,0.999877
04959,2,0,-72.0000,9.533205,0.233253,-2.474751,-0.054505,0.029995,0.039060,-0.006379,0.002360,-0.003285,-0.414488,-0.519581,-0.628477,0.095332,0.002330,-0.024749,1.000000,-0.000032,0.000012,-0.000016,0.999969,0.007823,0.000557,0.001195,0.896590,0.062704,0.137417,0.999997,0.002398,-0.001094,-0.002381,0.999875,0.015648,0.001132,-0.015645,0.999877
04960,2,0,-72.0000,9.525000,0.205760,-2.435250,-0.014390,0.051007,0.020704,-0.005261,0.002522,-0.000969,-0.408658,-0.511538,-0.638263,0.095250,0.002056,-0.024354,1.000000,-0.000026,0.000013,-0.000005,0.999969,0.007823,0.000554,0.001154,0.896542,0.062423,0.132716,0.999997,0.002316,-0.001089,-0.002299,0.999875,0.015647,0.001126,-0.015644,0.999877
04961,2,0,-72.0000,9.525106,0.206240,-2.434793,-0.014191,0.050741,0.020706,-0.006570,0.006809,-0.006085,-0.406219,-0.508731,-0.632584,0.095250,0.002059,-0.024351,1.000000,-0.000033,0.000034,-0.000030,0.999969,0.007794,0.000535,0.001109,0.893205,0.060345,0.127599,0.999997,0.002227,-0.001053,-0.002210,0.999876,0.015589,0.001088,-0.015586,0.999878
04962,2,0,-72.0000,9.518395,0.251865,-2.403793,0.006148,0.001437,0.007774,-0.007851,0.006096,-0.006657,-0.410092,-0.516947,-0.631100,0.095183,0.002515,-0.024041,1.000000,-0.000039,0.000030,-0.000033,0.999969,0.007760,0.000520,0.001063,0.889345,0.058598,0.122308,0.999997,0.002135,-0.001023,-0.002119,0.999877,0.015521,0.001056,-0.015519,0.999879
04963,2,0,-72.0000,9.518516,0.252730,-2.403226,0.006362,0.001184,0.007774,-0.009133,0.005383,-0.007230,-0.415104,-0.512037,-0.634114,0.095185,0.002523,-0.024035,1.000000,-0.000046,0.000027,-0.000036,0.999970,0.007723,0.000510,0.000997,0.885074,0.057557,0.114740,0.999997,0.002003,-0.001005,-0.001987,0.999879,0.015447,0.001035,-0.015445,0.999880
04964,2,0,-72.0000,9.525482,0.208575,-2.433123,-0.013624,0.049990,0.020711,-0.003653,0.004339,-0.003886,-0.410210,-0.511084,-0.627545,0.095254,0.002083,-0.024333,1.000000,-0.000018,0.000022,-0.000019,0.999970,0.007709,0.000501,0.000968,0.883487,0.056508,0.111367,0.999998,0.001944,-0.000986,-0.001928,0.999879,0.015419,0.001016,-0.015417,0.999881
04965,2,0,-72.0000,9.502880,0.218174,-2.431125,-0.019045,0.041125,-0.001437,-0.002999,0.006546,-0.010864,-0.409002,-0.517637,-0.637420,0.095028,0.002176,-0.024314,1.000000,-0.000015,0.000033,-0.000054,0.999970,0.007661,0.000486,0.000959,0.877997,0.054882,0.110292,0.999998,0.001925,-0.000958,-0.001910,0.999881,0.015323,0.000987,-0.015321,0.999882
04966,2,0,-72.0000,9.515109,0.250812,-2.435549,-0.025964,0.010026,0.012349,0.000734,0.009061,-0.003282,-0.407864,-0.516506,-0.623606,0.095150,0.002507,-0.024360,1.000000,0.000004,0.000045,-0.000016,0.999970,0.007652,0.000453,0.000951,0.876921,0.051070,0.109342,0.999998,0.001908,-0.000891,-0.001895,0.999881,0.015305,0.000920,-0.015303,0.999882
04967,2,0,-72.0000,9.515303,0.251192,-2.434753,-0.025763,0.009733,0.012349,-0.001828,0.007634,-0.004428,-0.420522,-0.513223,-0.630477,0.095152,0.002510,-0.024351,1.000000,-0.000009,0.000038,-0.000022,0.999970,0.007637,0.000429,0.000914,0.875246,0.048353,0.105056,0.999998,0.001834,-0.000844,-0.001820,0.999882,0.015275,0.000872,-0.015274,0.999883
04968,2,0,-72.0000,9.499279,0.205863,-2.409274,0.001479,0.050961,-0.010612,-0.000764,0.006870,-0.006231,-0.412741,-0.512650,-0.639496,0.094992,0.002056,-0.024096,1.000000,-0.000004,0.000034,-0.000031,0.999971,0.007614,0.000409,0.000901,0.872548,0.046068,0.103653,0.999998,0.001809,-0.000804,-0.001797,0.999882,0.015228,0.000831,-0.015227,0.999884
04969,2,0,-72.0000,9.500826,0.279202,-2.417424,-0.018145,-0.019590,-0.005196,0.000680,0.008135,-0.007403,-0.417256,-0.514154,-0.628029,0.095007,0.002789,-0.024178,1.000000,0.000003,0.000041,-0.000037,0.999971,0.007585,0.000384,0.000919,0.869249,0.043146,0.105623,0.999998,0.001843,-0.000753,-0.001832,0.999883,0.015171,0.000781,-0.015169,0.999885
04970,2,0,-72.0000,9.523683,0.270966,-2.418293,-0.012371,-0.011233,0.016953,-0.003654,0.004339,-0.003888,-0.412909,-0.512927,-0.634921,0.095236,0.002707,-0.024185,1.000000,-0.000018,0.000022,-0.000019,0.999971,0.007571,0.000374,0.000889,0.867662,0.042096,0.102250,0.999998,0.001785,-0.000735,-0.001773,0.999884,0.015143,0.000762,-0.015142,0.999885
04971,2,0,-72.0000,9.511782,0.239729,-2.412475,-0.005111,0.019350,0.003172,-0.001337,0.009290,-0.009663,-0.415714,-0.516856,-0.639248,0.095117,0.002393,-0.024129,1.000000,-0.000007,0.000046,-0.000048,0.999971,0.007530,0.000345,0.000894,0.862887,0.038709,0.102720,0.999998,0.001793,-0.000676,-0.001782,0.999885,0.015060,0.000703,-0.015058,0.999886
04972,2,0,-72.0000,9.501271,0.281097,-2.415454,-0.017639,-0.020356,-0.005197,-0.001093,0.005766,-0.002743,-0.416162,-0.505689,-0.628557,0.095012,0.002810,-0.024157,1.000000,-0.000005,0.000029,-0.000014,0.999971,0.007523,0.000327,0.000876,0.862156,0.036722,0.100631,0.999998,0.001756,-0.000641,-0.001747,0.999885,0.015047,0.000667,-0.015046,0.999887
04973,2,0,-72.0000,9.524167,0.272758,-2.416185,-0.011864,-0.011990,0.016953,-0.002566,0.009503,-0.006116,-0.406226,-0.510212,-0.626538,0.095241,0.002724,-0.024166,1.000000,-0.000013,0.000048,-0.000031,0.999971,0.007495,0.000294,0.000875,0.858950,0.032942,0.100540,0.999998,0.001755,-0.000575,-0.001746,0.999886,0.014991,0.000601,-0.014990,0.999887
04974,2,0,-72.0000,9.535052,0.232697,-2.411607,0.001011,0.027216,0.025324,-0.003846,0.008789,-0.006690,-0.408395,-0.512814,-0.626241,0.095350,0.002323,-0.024120,1.000000,-0.000019,0.000044,-0.000033,0.999972,0.007464,0.000265,0.000849,0.855388,0.029641,0.097520,0.999998,0.001702,-0.000517,-0.001694,0.999887,0.014929,0.000543,-0.014928,0.999888
04975,2,0,-72.0000,9.516632,0.255848,-2.429065,-0.024373,0.007710,0.012355,0.002369,0.005878,-0.001655,-0.420982,-0.517115,-0.630612,0.095166,0.002558,-0.024293,1.000000,0.000012,0.000029,-0.000008,0.999972,0.007469,0.000247,0.000832,0.855903,0.027573,0.095583,0.999998,0.001668,-0.000481,-0.001661,0.999887,0.014938,0.000506,-0.014937,0.999888
04976,2,0,-72.0000,9.512615,0.242212,-2.408939,-0.004227,0.018084,0.003175,0.002317,0.004952,-0.005775,-0.414736,-0.506134,-0.627659,0.095126,0.002420,-0.024092,1.000000,0.000012,0.000025,-0.000029,0.999972,0.007453,0.000236,0.000834,0.854067,0.026303,0.095800,0.999998,0.001672,-0.000459,-0.001665,0.999888,0.014906,0.000484,-0.014905,0.999889
04977,2,0,-72.0000,9.519272,0.187904,-2.385149,0.028586,0.067889,0.002370,0.003433,0.005114,-0.003458,-0.410350,-0.514135,-0.630028,0.095192,0.001878,-0.023854,1.000000,0.000017,0.000026,-0.000017,0.999972,0.007450,0.000220,0.000868,0.853773,0.024493,0.099630,0.999998,0.001739,-0.000427,-0.001732,0.999887,0.014901,0.000453,-0.014900,0.999889
04978,2,0,-72.0000,9.504970,0.224860,-2.422327,-0.016792,0.037791,-0.001419,0.003977,0.007696,-0.004572,-0.413247,-0.509517,-0.637605,0.095049,0.002247,-0.024227,1.000000,0.000020,0.000038,-0.000023,0.999972,0.007440,0.000195,0.000877,0.852575,0.021546,0.100643,0.999998,0.001757,-0.000376,-0.001751,0.999888,0.014880,0.000402,-0.014879,0.999889
04979,2,0,-72.0000,9.508860,0.229340,-2.387692,0.016254,0.027946,-0.006003,0.006843,0.004300,-0.006490,-0.414126,-0.512637,-0.626806,0.095088,0.002291,-0.023879,1.000000,0.000034,0.000021,-0.000032,0.999972,0.007426,0.000188,0.000902,0.850980,0.020831,0.103537,0.999998,0.001807,-0.000364,-0.001801,0.999888,0.014852,0.000390,-0.014851,0.999890
04980,2,0,-72.0000,9.482543,0.234573,-2.419615,-0.022025,0.028705,-0.023568,0.004685,0.010831,-0.007432,-0.405854,-0.509049,-0.626884,0.094824,0.002343,-0.024201,1.000000,0.000023,0.000054,-0.000037,0.999972,0.007400,0.000150,0.000919,0.848023,0.016375,0.105390,0.999998,0.001839,-0.000286,-0.001835,0.999889,0.014800,0.000313,-0.014800,0.999890
04981,2,0,-72.0000,9.502650,0.285099,-2.409553,-0.016078,-0.022653,-0.005199,0.008287,0.005566,-0.007662,-0.407439,-0.508127,-0.634794,0.095026,0.002848,-0.024098,1.000000,0.000041,0.000028,-0.000038,0.999972,0.007383,0.000137,0.000949,0.846082,0.014919,0.108837,0.999998,0.001900,-0.000260,-0.001896,0.999889,0.014766,0.000288,-0.014766,0.999891
04982,2,0,-72.0000,9.544523,0.264147,-2.445796,-0.037530,0.003901,0.043691,0.002287,0.009955,-0.010325,-0.410062,-0.509485,-0.636145,0.095444,0.002637,-0.024463,1.000000,0.000011,0.000050,-0.000052,0.999973,0.007341,0.000105,0.000957,0.841285,0.011249,0.109751,0.999998,0.001916,-0.000196,-0.001912,0.999890,0.014683,0.000224,-0.014682,0.999892
04983,2,0,-72.0000,9.486814,0.240778,-2.383265,0.011402,0.018367,-0.028153,0.003925,0.006771,-0.008695,-0.408923,-0.504031,-0.637440,0.094867,0.002404,-0.023836,1.000000,0.000020,0.000034,-0.000043,0.999973,0.007310,0.000090,0.000961,0.837653,0.009552,0.110190,0.999998,0.001923,-0.000167,-0.001921,0.999891,0.014619,0.000195,-0.014619,0.999893
04984,2,0,-72.0000,9.522111,0.274532,-2.442936,-0.042736,-0.005149,0.021541,0.006270,0.006721,-0.009925,-0.409738,-0.509322,-0.630938,0.095220,0.002741,-0.024432,1.000000,0.000031,0.000034,-0.000050,0.999973,0.007277,0.000074,0.000987,0.833936,0.007640,0.113210,0.999998,0.001976,-0.000133,-0.001974,0.999892,0.014554,0.000162,-0.014554,0.999894
04985,2,0,-72.0000,9.513945,0.247352,-2.403158,-0.002565,0.015891,0.003180,0.004661,0.004903,-0.007008,-0.417308,-0.513754,-0.630534,0.095139,0.002471,-0.024034,1.000000,0.000023,0.000025,-0.000035,0.999973,0.007256,0.000066,0.000998,0.831480,0.006781,0.114445,0.999998,0.001997,-0.000118,-0.001996,0.999893,0.014512,0.000147,-0.014511,0.999895
04986,2,0,-72.0000,9.530252,0.293757,-2.427326,-0.029474,-0.025832,0.026132,0.004139,0.008250,-0.006321,-0.416693,-0.503077,-0.627416,0.095302,0.002935,-0.024277,1.000000,0.000021,0.000041,-0.000032,0.999973,0.007237,0.000039,0.001010,0.829294,0.003684,0.115802,0.999998,0.002021,-0.000064,-0.002020,0.999893,0.014473,0.000094,-0.014473,0.999895
04987,2,0,-72.0000,9.514253,0.248374,-2.401832,-0.002247,0.015386,0.003181,0.005040,0.006934,-0.006378,-0.408548,-0.517800,-0.639550,0.095142,0.002481,-0.024022,1.000000,0.000025,0.000035,-0.000032,0.999973,0.007220,0.000018,0.001053,0.827354,0.001167,0.120703,0.999998,0.002107,-0.000020,-0.002106,0.999894,0.014440,0.000051,-0.014439,0.999896
04988,2,0,-72.0000,9.507864,0.303221,-2.424450,-0.034770,-0.034931,0.003980,0.001679,0.008674,0.000774,-0.407694,-0.516592,-0.630952,0.095078,0.003033,-0.024249,1.000000,0.000008,0.000043,0.000004,0.999973,0.007231,-0.000017,0.001045,0.828669,-0.002816,0.119708,0.999998,0.002089,0.000049,-0.002090,0.999893,0.014462,-0.000019,-0.014463,0.999895
04989,2,0,-72.0000,9.533592,0.235717,-2.435993,-0.029071,0.033076,0.029927,0.007958,0.004465,-0.004174,-0.414305,-0.519226,-0.637086,0.095335,0.002356,-0.024362,1.000000,0.000040,0.000022,-0.000021,0.999973,0.007231,-0.000025,0.001048,0.828658,-0.003685,0.120079,0.999998,0.002096,0.000064,-0.002096,0.999893,0.014462,-0.000034,-0.014462,0.999895
04990,2,0,-72.0000,9.511032,0.244870,-2.433846,-0.034512,0.024236,0.007777,0.002336,0.010882,-0.006209,-0.414773,-0.502364,-0.632435,0.095109,0.002446,-0.024344,1.000000,0.000012,0.000054,-0.000031,0.999973,0.007209,-0.000065,0.001052,0.826035,-0.008266,0.120460,0.999998,0.002102,0.000144,-0.002104,0.999894,0.014417,-0.000114,-0.014417,0.999896
04991,2,0,-72.0000,9.523311,0.277284,-2.437943,-0.041433,-0.006852,0.021546,0.001270,0.011646,-0.004408,-0.416647,-0.513759,-0.633975,0.095232,0.002771,-0.024385,1.000000,0.000006,0.000058,-0.000022,0.999974,0.007192,-0.000109,0.001058,0.824085,-0.013347,0.121178,0.999998,0.002115,0.000233,-0.002118,0.999894,0.014383,-0.000202,-0.014383,0.999897
04992,2,0,-72.0000,9.548762,0.200372,-2.395182,0.017035,0.062167,0.033720,-0.001812,0.013564,-0.004869,-0.403324,-0.513758,-0.634827,0.095486,0.002001,-0.023958,1.000000,-0.000009,0.000068,-0.000024,0.999974,0.007168,-0.000163,0.001041,0.821365,-0.019535,0.119109,0.999998,0.002079,0.000341,-0.002084,0.999895,0.014335,-0.000311,-0.014336,0.999897
04993,2,0,-72.0000,9.519317,0.254492,-2.362189,0.031744,0.004259,-0.001415,-0.000911,0.012248,-0.004926,-0.415541,-0.511388,-0.626196,0.095192,0.002542,-0.023628,1.000000,-0.000005,0.000061,-0.000025,0.999974,0.007146,-0.000209,0.001015,0.818879,-0.024739,0.116135,0.999998,0.002027,0.000432,-0.002033,0.999896,0.014292,-0.000403,-0.014292,0.999898
04994,2,0,-72.0000,9.495979,0.200984,-2.404508,-0.006670,0.064724,-0.015166,0.003402,0.010119,-0.008013,-0.415010,-0.516933,-0.632375,0.094959,0.002006,-0.024050,1.000000,0.000017,0.000051,-0.000040,0.999974,0.007117,-0.000243,0.001026,0.815489,-0.028727,0.117349,0.999998,0.002048,0.000501,-0.002055,0.999897,0.014232,-0.000472,-0.014233,0.999899
04995,2,0,-73.0000,9.520245,0.265408,-2.413834,-0.020740,0.002724,0.012366,0.005796,0.010997,-0.005121,-0.413773,-0.515612,-0.631428,0.095201,0.002652,-0.024144,1.000000,0.000029,0.000055,-0.000026,0.999974,0.007105,-0.000286,0.001055,0.814174,-0.033595,0.120618,0.999998,0.002105,0.000586,-0.002113,0.999897,0.014210,-0.000556,-0.014211,0.999899
04996,2,0,-73.0000,9.542775,0.247326,-2.360524,0.037866,0.012052,0.020737,0.007027,0.010786,-0.008670,-0.414348,-0.505616,-0.631535,0.095427,0.002470,-0.023610,1.000000,0.000035,0.000054,-0.000043,0.999974,0.007076,-0.000323,0.001084,0.810870,-0.037927,0.123948,0.999997,0.002163,0.000662,-0.002172,0.999897,0.014152,-0.000631,-0.014153,0.999900
04997,2,0,-73.0000,9.493772,0.261325,-2.391021,-0.006033,0.004251,-0.018968,0.005941,0.005620,-0.006437,-0.418571,-0.516679,-0.628452,0.094937,0.002611,-0.023913,1.000000,0.000030,0.000028,-0.000032,0.999974,0.007061,-0.000337,0.001112,0.809134,-0.039506,0.127198,0.999997,0.002220,0.000690,-0.002230,0.999898,0.014122,-0.000658,-0.014123,0.999900
04998,2,0,-73.0000,9.516703,0.253012,-2.391622,-0.000239,0.012586,0.003185,0.003614,0.011599,-0.005641,-0.423248,-0.513014,-0.630291,0.095166,0.002528,-0.023922,1.000000,0.000018,0.000058,-0.000028,0.999975,0.007042,-0.000381,0.001122,0.806935,-0.044555,0.128222,0.999997,0.002238,0.000778,-0.002249,0.999898,0.014083,-0.000746,-0.014085,0.999901
04999,2,0,-73.0000,9.512790,0.239628,-2.370971,0.019861,0.022902,-0.005997,0.001055,0.010169,-0.006788,-0.417365,-0.517723,-0.624979,0.095127,0.002393,-0.023715,1.000000,0.000005,0.000051,-0.000034,0.999975,0.007018,-0.000419,0.001149,0.804170,-0.048949,0.131272,0.999997,0.002291,0.000854,-0.002303,0.999899,0.014035,-0.000822,-0.014037,0.999901
05000,2,0,-73.0000,9.512988,0.240313,-2.370108,0.020034,0.022652,-0.005997,0.003023,0.008089,-0.008646,-0.409842,-0.518354,-0.634186,0.095129,0.002399,-0.023705,1.000000,0.000015,0.000040,-0.000043,0.999975,0.006987,-0.000443,0.001158,0.800568,-0.051728,0.132334,0.999997,0.002310,0.000903,-0.002322,0.999900,0.013972,-0.000870,-0.013974,0.999902
05001,2,0,-73.0000,9.498719,0.277632,-2.407247,-0.025370,-0.007473,-0.009785,0.001579,0.006822,-0.007473,-0.410473,-0.521079,-0.630752,0.094986,0.002773,-0.024076,1.000000,0.000008,0.000034,-0.000037,0.999975,0.006963,-0.000462,0.001155,0.797886,-0.053904,0.131989,0.999997,0.002304,0.000941,-0.002317,0.999900,0.013925,-0.000909,-0.013927,0.999903
05002,2,0,-73.0000,9.544371,0.260657,-2.409328,-0.013952,0.009442,0.034522,0.001791,0.008302,-0.005099,-0.414548,-0.514485,-0.631232,0.095443,0.002604,-0.024097,1.000000,0.000009,0.000042,-0.000025,0.999975,0.006947,-0.000491,0.001154,0.796036,-0.057126,0.131874,0.999997,0.002302,0.000997,-0.002315,0.999901,0.013893,-0.000965,-0.013895,0.999903
05003,2,0,-73.0000,9.494871,0.264848,-2.386268,-0.005038,0.002593,-0.018967,0.004827,0.005458,-0.008758,-0.422339,-0.513341,-0.634550,0.094948,0.002645,-0.023865,1.000000,0.000024,0.000027,-0.000044,0.999975,0.006922,-0.000501,0.001164,0.793163,-0.058355,0.132956,0.999997,0.002321,0.001018,-0.002334,0.999901,0.013843,-0.000986,-0.013845,0.999904
05004,2,0,-73.0000,9.487194,0.247359,-2.400029,-0.017723,0.022586,-0.023543,0.009041,0.009637,-0.006409,-0.413784,-0.514204,-0.627396,0.094871,0.002472,-0.024005,1.000000,0.000045,0.000048,-0.000032,0.999975,0.006908,-0.000535,0.001200,0.791486,-0.062264,0.137071,0.999997,0.002392,0.001087,-0.002407,0.999902,0.013814,-0.001054,-0.013816,0.999904
05005,2,0,-73.0000,9.514267,0.252945,-2.420338,-0.031922,0.020274,0.007795,0.005941,0.005622,-0.006439,-0.419671,-0.516075,-0.630188,0.095142,0.002527,-0.024206,1.000000,0.000030,0.000028,-0.000032,0.999975,0.006894,-0.000550,0.001237,0.789899,-0.063988,0.141335,0.999996,0.002467,0.001117,-0.002482,0.999902,0.013786,-0.001083,-0.013789,0.999904
05006,2,0,-73.0000,9.537957,0.307541,-2.376154,0.006823,-0.040707,0.021518,0.003611,0.011601,-0.005645,-0.409865,-0.514095,-0.627128,0.095378,0.003073,-0.023767,1.000000,0.000018,0.000058,-0.000028,0.999975,0.006875,-0.000594,0.001246,0.787697,-0.069038,0.142360,0.999996,0.002485,0.001205,-0.002501,0.999902,0.013747,-0.001171,-0.013750,0.999905
05007,2,0,-73.0000,9.522521,0.271978,-2.404105,-0.018727,-0.000517,0.012370,0.001955,0.008854,-0.006848,-0.414873,-0.509912,-0.635683,0.095224,0.002717,-0.024045,1.000000,0.000010,0.000044,-0.000034,0.999976,0.006852,-0.000624,0.001252,0.785135,-0.072460,0.142958,0.999996,0.002495,0.001265,-0.002512,0.999903,0.013703,-0.001230,-0.013706,0.999905
05008,2,0,-73.0000,9.506530,0.226687,-2.378608,0.008545,0.040703,-0.010567,0.003760,0.006223,-0.006958,-0.416687,-0.503036,-0.626410,0.095065,0.002264,-0.023789,1.000000,0.000019,0.000031,-0.000035,0.999976,0.006831,-0.000640,0.001262,0.782735,-0.074348,0.144164,0.999996,0.002516,0.001298,-0.002534,0.999903,0.013661,-0.001263,-0.013664,0.999906
05009,2,0,-73.0000,9.522845,0.272980,-2.402710,-0.018379,-0.000998,0.012371,0.005250,0.008418,-0.004010,-0.411585,-0.517623,-0.629464,0.095227,0.002729,-0.024031,1.000000,0.000026,0.000042,-0.000020,0.999976,0.006824,-0.000670,0.001293,0.781839,-0.077750,0.147600,0.999996,0.002576,0.001357,-0.002594,0.999904,0.013645,-0.001322,-0.013649,0.999906
05010,2,0,-74.0000,9.514690,0.245604,-2.362719,0.021749,0.019976,-0.005995,0.005204,0.007491,-0.008132,-0.414609,-0.504653,-0.633232,0.095146,0.002453,-0.023631,1.000000,0.000026,0.000037,-0.000041,0.999976,0.006798,-0.000691,0.001312,0.778879,-0.080255,0.149792,0.999996,0.002614,0.001401,-0.002633,0.999904,0.013594,-0.001365,-0.013597,0.999907
05011,2,0,-74.0000,9.526785,0.278115,-2.367387,0.014816,-0.011139,0.007759,-0.002753,0.003019,-0.003958,-0.416925,-0.513641,-0.638186,0.095268,0.002779,-0.023675,1.000000,-0.000014,0.000015,-0.000020,0.999976,0.006786,-0.000693,0.001286,0.777548,-0.080465,0.146850,0.999996,0.002563,0.001404,-0.002582,0.999905,0.013570,-0.001369,-0.013574,0.999907
05012,2,0,-73.0000,9.537672,0.237841,-2.363060,0.027742,0.028042,0.016160,0.001789,0.008303,-0.005103,-0.411631,-0.511729,-0.636755,0.095376,0.002376,-0.023635,1.000000,0.000009,0.000042,-0.000026,0.999976,0.006770,-0.000722,0.001285,0.775695,-0.083687,0.146735,0.999996,0.002561,0.001461,-0.002581,0.999905,0.013538,-0.001426,-0.013542,0.999907
05013,2,0,-74.0000,9.515620,0.256814,-2.414603,-0.030489,0.018259,0.007803,0.001789,0.008303,-0.005103,-0.415685,-0.510112,-0.637744,0.095155,0.002566,-0.024150,1.000000,0.000009,0.000042,-0.000026,0.999976,0.006753,-0.000748,0.001284,0.773749,-0.086703,0.146584,0.999996,0.002558,0.001513,-0.002579,0.999905,0.013504,-0.001479,-0.013508,0.999908
05014,2,0,-74.0000,9.500821,0.284127,-2.398177,-0.023094,-0.010811,-0.009783,0.001037,0.004240,-0.006360,-0.408801,-0.511292,-0.632938,0.095008,0.002838,-0.023984,1.000000,0.000005,0.000021,-0.000032,0.999976,0.006733,-0.000755,0.001281,0.771480,-0.087505,0.146163,0.999996,0.002551,0.001527,-0.002571,0.999906,0.013464,-0.001493,-0.013468,0.999908
05015,2,0,-74.0000,9.519524,0.261967,-2.379398,0.002727,0.008138,0.003189,0.002692,0.006988,-0.005158,-0.414281,-0.509231,-0.634825,0.095194,0.002618,-0.023797,1.000000,0.000013,0.000035,-0.000026,0.999976,0.006718,-0.000775,0.001279,0.769745,-0.089758,0.145987,0.999996,0.002548,0.001567,-0.002569,0.999906,0.013434,-0.001532,-0.013438,0.999909
05016,2,0,-74.0000,9.542414,0.253638,-2.380174,0.008532,0.016459,0.025344,0.003594,0.005672,-0.005213,-0.419743,-0.511061,-0.634955,0.095424,0.002534,-0.023804,1.000000,0.000018,0.000028,-0.000026,0.999976,0.006706,-0.000790,0.001287,0.768328,-0.091497,0.146848,0.999995,0.002563,0.001597,-0.002584,0.999907,0.013409,-0.001562,-0.013414,0.999909
05017,2,0,-74.0000,9.523930,0.276620,-2.397986,-0.016897,-0.002959,0.012373,0.004331,0.003805,-0.003520,-0.418013,-0.511102,-0.629097,0.095239,0.002765,-0.023982,1.000000,0.000022,0.000019,-0.000018,0.999976,0.006703,-0.000797,0.001308,0.768038,-0.092288,0.149317,0.999995,0.002606,0.001611,-0.002627,0.999907,0.013404,-0.001576,-0.013409,0.999909
05018,2,0,-74.0000,9.512081,0.244875,-2.392289,-0.009596,0.027650,-0.001376,0.009775,0.007774,-0.004720,-0.411220,-0.508831,-0.625023,0.095120,0.002448,-0.023926,1.000000,0.000049,0.000039,-0.000024,0.999976,0.006699,-0.000823,0.001346,0.767558,-0.095307,0.153577,0.999995,0.002680,0.001663,-0.002702,0.999907,0.013396,-0.001627,-0.013400,0.999909
05019,2,0,-74.0000,9.535019,0.236336,-2.392896,-0.003797,0.035943,0.020781,0.002901,0.008468,-0.002785,-0.420012,-0.510857,-0.631109,0.095349,0.002362,-0.023933,1.000000,0.000015,0.000042,-0.000014,0.999976,0.006697,-0.000854,0.001354,0.767266,-0.098900,0.154542,0.999995,0.002697,0.001726,-0.002720,0.999907,0.013391,-0.001690,-0.013396,0.999909
05020,2,0,-73.0000,9.543110,0.254763,-2.377260,0.009227,0.015441,0.025346,-0.003628,0.016197,-0.004782,-0.416525,-0.515925,-0.631991,0.095429,0.002545,-0.023780,1.000000,-0.000018,0.000081,-0.000024,0.999976,0.006669,-0.000921,0.001328,0.764099,-0.106573,0.151500,0.999995,0.002644,0.001860,-0.002669,0.999908,0.013336,-0.001825,-0.013341,0.999909
05021,2,0,-73.0000,9.535816,0.237381,-2.389616,-0.003461,0.035416,0.020783,0.003438,0.027919,-0.009342,-0.420987,-0.510571,-0.628092,0.095355,0.002370,-0.023909,1.000000,0.000017,0.000140,-0.000047,0.999977,0.006620,-0.001043,0.001358,0.758474,-0.120561,0.154772,0.999994,0.002701,0.002104,-0.002729,0.999909,0.013237,-0.002068,-0.013243,0.999910
05022,2,0,-73.0000,9.549004,0.279388,-2.445864,-0.063226,0.003343,0.048336,0.006443,0.027310,0.001113,-0.419393,-0.506002,-0.631014,0.095487,0.002795,-0.024472,1.000000,0.000032,0.000137,0.000006,0.999976,0.006624,-0.001170,0.001375,0.758907,-0.135144,0.156679,0.999993,0.002735,0.002359,-0.002766,0.999908,0.013245,-0.002322,-0.013251,0.999909
05023,2,0,-73.0000,9.533075,0.223671,-2.364200,0.016840,0.045516,0.011601,0.011327,0.039633,-0.003971,-0.419836,-0.514145,-0.626117,0.095326,0.002236,-0.023661,1.000000,0.000057,0.000198,-0.000020,0.999976,0.006600,-0.001355,0.001450,0.756123,-0.156391,0.165078,0.999992,0.002881,0.002730,-0.002917,0.999909,0.013196,-0.002691,-0.013204,0.999909
05024,2,0,-73.0000,9.512400,0.305053,-2.368287,-0.008520,-0.033587,-0.005221,0.015145,0.035854,-0.001814,-0.412947,-0.511679,-0.628867,0.095120,0.003051,-0.023700,1.000000,0.000076,0.000179,-0.000009,0.999976,0.006594,-0.001522,0.001514,0.755365,-0.175591,0.172367,0.999991,0.003008,0.003065,-0.003049,0.999908,0.013183,-0.003025,-0.013192,0.999908
05025,2,0,-73.0000,9.524003,0.264069,-2.361175,0.004410,0.005548,0.003190,0.015880,0.033989,-0.000124,-0.415680,-0.505693,-0.632709,0.095236,0.002643,-0.023628,1.000000,0.000079,0.000170,-0.000001,0.999976,0.006600,-0.001682,0.001586,0.756039,-0.193959,0.180418,0.999989,0.003149,0.003385,-0.003193,0.999908,0.013195,-0.003343,-0.013206,0.999907
05026,2,0,-73.0000,9.521155,0.259592,-2.392387,-0.028245,0.014943,0.007815,0.016936,0.027294,-0.001485,-0.421248,-0.508886,-0.630293,0.095208,0.002597,-0.023937,1.000000,0.000085,0.000136,-0.000007,0.999975,0.006605,-0.001807,0.001657,0.756501,-0.208366,0.188517,0.999988,0.003290,0.003637,-0.003338,0.999907,0.013203,-0.003593,-0.013215,0.999906
05027,2,0,-73.0000,9.529546,0.277384,-2.375483,-0.015222,-0.005548,0.012375,0.008241,0.024686,0.000989,-0.412962,-0.506660,-0.627352,0.095293,0.002775,-0.023766,1.000000,0.000041,0.000123,0.000005,0.999975,0.006612,-0.001921,0.001698,0.757279,-0.221451,0.193068,0.999987,0.003370,0.003865,-0.003420,0.999907,0.013217,-0.003820,-0.013230,0.999905
05028,2,0,-72.0000,9.507326,0.285966,-2.372039,-0.020688,-0.014362,-0.009782,0.001687,0.020550,-0.000135,-0.420865,-0.510934,-0.630390,0.095071,0.002860,-0.023730,1.000000,0.000008,0.000103,-0.000001,0.999975,0.006609,-0.002014,0.001692,0.756996,-0.232061,0.192401,0.999986,0.003358,0.004050,-0.003411,0.999907,0.013212,-0.004005,-0.013225,0.999905
05029,2,0,-73.0000,9.503586,0.272258,-2.350473,-0.000534,-0.004013,-0.018966,-0.002881,0.020267,-0.003555,-0.415316,-0.503849,-0.634564,0.095034,0.002721,-0.023514,1.000000,-0.000014,0.000101,-0.000018,0.999975,0.006586,-0.002102,0.001676,0.754275,-0.242141,0.190475,0.999986,0.003324,0.004226,-0.003380,0.999908,0.013164,-0.004182,-0.013178,0.999904
05030,2,0,-72.0000,9.515885,0.304283,-2.354343,-0.007495,-0.035125,-0.005226,0.002398,0.006816,0.002451,-0.416394,-0.512237,-0.638068,0.095158,0.003044,-0.023547,1.000000,0.000012,0.000034,0.000012,0.999975,0.006608,-0.002129,0.001669,0.756786,-0.245239,0.189621,0.999985,0.003309,0.004280,-0.003366,0.999907,0.013208,-0.004236,-0.013222,0.999904
05031,2,0,-72.0000,9.507069,0.213620,-2.359166,-0.000220,0.055199,-0.015105,-0.000930,0.006320,-0.004516,-0.412300,-0.508468,-0.626513,0.095070,0.002134,-0.023595,1.000000,-0.000005,0.000032,-0.000023,0.999975,0.006591,-0.002146,0.001654,0.754852,-0.247143,0.187967,0.999985,0.003281,0.004313,-0.003337,0.999908,0.013174,-0.004270,-0.013188,0.999904
05032,2,0,-72.0000,9.514879,0.231969,-2.344471,0.012799,0.034692,-0.010549,0.005599,-0.001410,-0.002501,-0.418334,-0.502110,-0.628512,0.095149,0.002319,-0.023444,1.000000,0.000028,-0.000007,-0.000013,0.999975,0.006600,-0.002128,0.001667,0.755856,-0.245149,0.189451,0.999985,0.003307,0.004279,-0.003363,0.999907,0.013192,-0.004235,-0.013206,0.999904
05033,2,0,-72.0000,9.508275,0.286894,-2.368117,-0.019777,-0.015577,-0.009782,0.001032,-0.001694,-0.005921,-0.417230,-0.517646,-0.628539,0.095083,0.002866,-0.023680,1.000000,0.000005,-0.000008,-0.000030,0.999975,0.006586,-0.002106,0.001667,0.754340,-0.242587,0.189389,0.999986,0.003305,0.004234,-0.003361,0.999908,0.013165,-0.004190,-0.013179,0.999904
05034,2,0,-72.0000,9.522500,0.250898,-2.330479,0.025999,0.013940,-0.005995,-0.000786,-0.004996,-0.005372,-0.420363,-0.513341,-0.626739,0.095226,0.002506,-0.023302,1.000000,-0.000004,-0.000025,-0.000027,0.999975,0.006576,-0.002068,0.001651,0.753221,-0.238249,0.187671,0.999986,0.003275,0.004158,-0.003330,0.999908,0.013146,-0.004115,-0.013159,0.999905
05035,2,0,-72.0000,9.518768,0.246873,-2.365333,-0.006668,0.023288,-0.001362,-0.001093,-0.011103,0.002690,-0.417517,-0.504440,-0.627711,0.095189,0.002470,-0.023648,1.000000,-0.000005,-0.000056,0.000013,0.999975,0.006612,-0.002008,0.001631,0.757356,-0.231308,0.185354,0.999987,0.003235,0.004037,-0.003288,0.999907,0.013218,-0.003994,-0.013231,0.999904
05036,2,0,-72.0000,9.553293,0.270340,-2.372618,-0.007988,0.000733,0.034533,-0.003340,-0.006431,-0.006521,-0.410491,-0.516106,-0.636288,0.095534,0.002700,-0.023723,1.000000,-0.000017,-0.000032,-0.000033,0.999975,0.006595,-0.001962,0.001604,0.755388,-0.226033,0.182355,0.999987,0.003183,0.003945,-0.003234,0.999908,0.013184,-0.003903,-0.013196,0.999905
05037,2,0,-72.0000,9.480593,0.282985,-2.349882,-0.004740,-0.014582,-0.041125,0.005047,-0.009927,-0.000935,-0.421457,-0.517070,-0.625455,0.094807,0.002830,-0.023494,1.000000,0.000025,-0.000050,-0.000005,0.999975,0.006617,-0.001902,0.001606,0.757955,-0.219198,0.182561,0.999988,0.003186,0.003826,-0.003237,0.999907,0.013228,-0.003783,-0.013241,0.999905
05038,2,0,-72.0000,9.529409,0.269807,-2.319409,0.039546,-0.007377,-0.001445,-0.003313,-0.011434,-0.001954,-0.415262,-0.514081,-0.630296,0.095295,0.002697,-0.023189,1.000000,-0.000017,-0.000057,-0.000010,0.999975,0.006626,-0.001836,0.001573,0.758958,-0.211525,0.178858,0.999988,0.003122,0.003692,-0.003170,0.999907,0.013246,-0.003650,-0.013257,0.999905
05039,2,0,-72.0000,9.525569,0.265887,-2.354642,0.006882,0.001976,0.003190,-0.002410,-0.012749,-0.002007,-0.415268,-0.516284,-0.623747,0.095257,0.002658,-0.023540,1.000000,-0.000012,-0.000064,-0.000010,0.999975,0.006639,-0.001763,0.001551,0.760477,-0.203194,0.176383,0.999989,0.003078,0.003546,-0.003125,0.999907,0.013272,-0.003505,-0.013283,0.999906
05040,2,0,-72.0000,9.517515,0.248009,-2.370253,-0.005787,0.021985,-0.001358,0.002492,-0.011361,-0.002085,-0.412872,-0.503572,-0.630145,0.095177,0.002479,-0.023697,1.000000,0.000012,-0.000057,-0.000010,0.999975,0.006654,-0.001697,0.001547,0.762205,-0.195593,0.175924,0.999989,0.003070,0.003414,-0.003116,0.999907,0.013303,-0.003373,-0.013313,0.999906
05041,2,0,-72.0000,9.532770,0.284387,-2.342420,0.020074,-0.018808,0.007738,-0.000966,-0.011480,-0.003181,-0.413444,-0.512523,-0.633274,0.095329,0.002842,-0.023419,1.000000,-0.000005,-0.000057,-0.000016,0.999975,0.006661,-0.001628,0.001525,0.762986,-0.187755,0.173519,0.999990,0.003028,0.003277,-0.003072,0.999907,0.013316,-0.003236,-0.013326,0.999906
05042,2,0,-72.0000,9.528947,0.280423,-2.377529,-0.012576,-0.009400,0.012375,-0.000759,-0.009999,-0.000808,-0.412531,-0.512446,-0.633757,0.095291,0.002804,-0.023771,1.000000,-0.000004,-0.000050,-0.000004,0.999975,0.006677,-0.001570,0.001504,0.764836,-0.181020,0.171098,0.999991,0.002986,0.003159,-0.003028,0.999906,0.013348,-0.003119,-0.013358,0.999906
05043,2,0,-72.0000,9.532218,0.284598,-2.344637,0.020453,-0.019314,0.007736,-0.001840,-0.015167,0.001435,-0.423978,-0.500693,-0.634639,0.095324,0.002846,-0.023439,1.000000,-0.000009,-0.000076,0.000007,0.999975,0.006706,-0.001486,0.001464,0.768259,-0.171363,0.166667,0.999991,0.002909,0.002991,-0.002949,0.999906,0.013408,-0.002952,-0.013417,0.999906
05044,2,0,-72.0000,9.520610,0.262432,-2.394246,-0.025034,0.010359,0.007830,-0.008371,-0.007439,-0.000573,-0.415391,-0.513037,-0.629508,0.095207,0.002623,-0.023939,1.000000,-0.000042,-0.000037,-0.000003,0.999975,0.006712,-0.001440,0.001406,0.768941,-0.166039,0.160027,0.999992,0.002793,0.002898,-0.002832,0.999906,0.013420,-0.002860,-0.013428,0.999906
05045,2,0,-72.0000,9.539586,0.249708,-2.430457,-0.052035,0.028337,0.034631,-0.011259,-0.009977,0.001774,-0.423800,-0.506506,-0.624862,0.095397,0.002497,-0.024300,1.000000,-0.000056,-0.000050,0.000009,0.999976,0.006727,-0.001383,0.001351,0.770648,-0.159501,0.153691,0.999993,0.002682,0.002784,-0.002720,0.999906,0.013450,-0.002747,-0.013457,0.999906
05046,2,0,-73.0000,9.527951,0.281243,-2.381421,-0.011854,-0.010389,0.012375,-0.025830,-0.008584,-0.004305,-0.416148,-0.504889,-0.633094,0.095281,0.002807,-0.023810,1.000000,-0.000129,-0.000043,-0.000022,0.999976,0.006695,-0.001328,0.001212,0.766964,-0.153050,0.137858,0.999994,0.002406,0.002671,-0.002442,0.999907,0.013386,-0.002639,-0.013392,0.999907
05047,2,0,-72.0000,9.560121,0.160151,-2.370689,0.026688,0.107605,0.037665,-0.025831,-0.008583,-0.004307,-0.413576,-0.505657,-0.629464,0.095602,0.001596,-0.023703,1.000000,-0.000129,-0.000043,-0.000022,0.999976,0.006662,-0.001273,0.001097,0.763234,-0.146701,0.124724,0.999994,0.002177,0.002560,-0.002211,0.999909,0.013321,-0.002531,-0.013326,0.999908
05048,2,0,-72.0000,9.514372,0.178595,-2.368873,0.015561,0.090256,-0.006651,-0.016775,-0.009872,-0.005719,-0.415712,-0.509190,-0.639500,0.095145,0.001781,-0.023684,1.000000,-0.000084,-0.000049,-0.000029,0.999977,0.006635,-0.001210,0.001004,0.760151,-0.139457,0.114096,0.999995,0.001991,0.002434,-0.002023,0.999910,0.013267,-0.002407,-0.013272,0.999909
05049,2,0,-72.0000,9.503350,0.220239,-2.373499,0.002964,0.050620,-0.015081,-0.014054,-0.007885,-0.006319,-0.419448,-0.502664,-0.622438,0.095035,0.002198,-0.023731,1.000000,-0.000070,-0.000039,-0.000032,0.999977,0.006605,-0.001156,0.000929,0.756775,-0.133142,0.105523,0.999996,0.001842,0.002324,-0.001872,0.999911,0.013208,-0.002299,-0.013212,0.999910
05050,2,0,-72.0000,9.515091,0.253349,-2.379402,-0.004009,0.019506,-0.001352,-0.014096,-0.008812,-0.010443,-0.407313,-0.510248,-0.625760,0.095152,0.002527,-0.023790,1.000000,-0.000070,-0.000044,-0.000052,0.999978,0.006558,-0.001095,0.000854,0.751376,-0.126074,0.097060,0.999996,0.001694,0.002200,-0.001723,0.999913,0.013114,-0.002178,-0.013117,0.999912
05051,2,0,-72.0000,9.499822,0.281578,-2.364547,0.003339,-0.009574,-0.018971,-0.017026,-0.012277,-0.012221,-0.419785,-0.515312,-0.630159,0.095000,0.002808,-0.023640,1.000000,-0.000085,-0.000061,-0.000061,0.999978,0.006502,-0.001015,0.000772,0.745019,-0.116900,0.087709,0.999997,0.001531,0.002040,-0.001557,0.999914,0.013003,-0.002020,-0.013006,0.999913
05052,2,0,-72.0000,9.518704,0.270030,-2.400971,-0.023653,0.008388,0.007835,-0.008457,-0.009291,-0.008828,-0.418222,-0.511670,-0.637606,0.095188,0.002695,-0.024005,1.000000,-0.000042,-0.000046,-0.000044,0.999978,0.006470,-0.000953,0.000723,0.741333,-0.109756,0.082143,0.999997,0.001434,0.001916,-0.001458,0.999915,0.012938,-0.001897,-0.012941,0.999914
05053,2,0,-72.0000,9.503430,0.297987,-2.386128,-0.016306,-0.020687,-0.009785,-0.015916,-0.012112,-0.009902,-0.411686,-0.513177,-0.642030,0.095036,0.002973,-0.023856,1.000000,-0.000080,-0.000061,-0.000050,0.999979,0.006426,-0.000876,0.000654,0.736361,-0.100890,0.074244,0.999998,0.001296,0.001761,-0.001318,0.999917,0.012852,-0.001744,-0.012854,0.999916
05054,2,0,-72.0000,9.514580,0.268461,-2.436837,-0.056131,0.017541,0.012485,-0.020435,-0.005535,-0.009635,-0.408829,-0.513663,-0.636457,0.095147,0.002678,-0.024366,1.000000,-0.000102,-0.000028,-0.000048,0.999979,0.006373,-0.000832,0.000548,0.730210,-0.095708,0.062198,0.999998,0.001086,0.001670,-0.001107,0.999918,0.012744,-0.001656,-0.012746,0.999917
05055,2,0,-72.0000,9.516932,0.201117,-2.394264,-0.003128,0.077912,0.002549,-0.014420,-0.003983,-0.007390,-0.414411,-0.505611,-0.625727,0.095170,0.002006,-0.023941,1.000000,-0.000072,-0.000020,-0.000037,0.999980,0.006335,-0.000794,0.000456,0.725889,-0.091332,0.051627,0.999998,0.000901,0.001594,-0.000921,0.999919,0.012669,-0.001582,-0.012670,0.999918
05056,2,0,-72.0000,9.548469,0.284246,-2.390347,-0.004422,-0.004336,0.034534,-0.006102,-0.003401,-0.010495,-0.410944,-0.509358,-0.630633,0.095485,0.002837,-0.023902,1.000000,-0.000031,-0.000017,-0.000052,0.999980,0.006293,-0.000760,0.000421,0.721069,-0.087377,0.047697,0.999998,0.000832,0.001525,-0.000852,0.999920,0.012585,-0.001514,-0.012586,0.999920
05057,2,0,-73.0000,9.548360,0.285363,-2.390649,-0.004245,-0.004594,0.034534,-0.008449,-0.003356,-0.009269,-0.422711,-0.506474,-0.631686,0.095484,0.002848,-0.023905,1.000000,-0.000042,-0.000017,-0.000046,0.999980,0.006254,-0.000727,0.000377,0.716629,-0.083520,0.042685,0.999999,0.000745,0.001458,-0.000763,0.999921,0.012507,-0.001448,-0.012508,0.999921
05058,2,0,-73.0000,9.513546,0.263206,-2.384502,-0.002580,0.017478,-0.001348,-0.009727,-0.004072,-0.009845,-0.407358,-0.517478,-0.633051,0.095136,0.002626,-0.023843,1.000000,-0.000049,-0.000020,-0.000049,0.999980,0.006211,-0.000689,0.000324,0.711720,-0.079223,0.036639,0.999999,0.000639,0.001383,-0.000657,0.999923,0.012422,-0.001375,-0.012422,0.999922
05059,2,0,-73.0000,9.497869,0.228328,-2.413917,-0.028066,0.057752,-0.010416,-0.004129,-0.005476,-0.012353,-0.415501,-0.507855,-0.624444,0.094979,0.002277,-0.024137,1.000000,-0.000021,-0.000027,-0.000062,0.999981,0.006165,-0.000643,0.000307,0.706429,-0.073908,0.034740,0.999999,0.000606,0.001290,-0.000622,0.999924,0.012329,-0.001282,-0.012330,0.999923
05060,2,0,-73.0000,9.536061,0.256867,-2.386623,0.003429,0.025503,0.020814,0.002425,-0.001339,-0.011225,-0.410529,-0.515938,-0.626457,0.095361,0.002564,-0.023866,1.000000,0.000012,-0.000007,-0.000056,0.999981,0.006128,-0.000619,0.000315,0.702208,-0.071109,0.035680,0.999999,0.000623,0.001241,-0.000638,0.999925,0.012256,-0.001233,-0.012256,0.999924
05061,2,0,-72.0000,9.547335,0.280205,-2.338307,0.049236,-0.004738,0.020693,-0.002686,-0.004206,-0.013527,-0.409984,-0.513736,-0.630876,0.095474,0.002795,-0.023381,1.000000,-0.000013,-0.000021,-0.000068,0.999981,0.006079,-0.000579,0.000303,0.696533,-0.066502,0.034332,0.999999,0.000599,0.001161,-0.000613,0.999926,0.012156,-0.001153,-0.012157,0.999925
05062,2,0,-72.0000,9.505793,0.312687,-2.355657,0.018101,-0.032661,-0.014443,-0.000834,-0.005911,-0.009510,-0.415063,-0.505571,-0.627324,0.095059,0.003122,-0.023554,1.000000,-0.000004,-0.000030,-0.000048,0.999982,0.006050,-0.000533,0.000292,0.693220,-0.061260,0.033145,0.999999,0.000578,0.001069,-0.000591,0.999927,0.012099,-0.001062,-0.012099,0.999926
05063,2,0,-72.0000,9.497866,0.295639,-2.370679,0.005447,-0.012656,-0.018975,-0.000670,-0.005357,-0.011259,-0.416357,-0.520021,-0.634552,0.094979,0.002951,-0.023704,1.000000,-0.000003,-0.000027,-0.000056,0.999982,0.006013,-0.000488,0.000287,0.689016,-0.056138,0.032524,0.999999,0.000568,0.000980,-0.000579,0.999928,0.012025,-0.000973,-0.012026,0.999927
05064,2,0,-72.0000,9.486342,0.274525,-2.419733,-0.040025,0.017043,-0.018849,0.000608,-0.004640,-0.010684,-0.405345,-0.516924,-0.635575,0.094864,0.002740,-0.024195,1.000000,0.000003,-0.000023,-0.000053,0.999982,0.005979,-0.000448,0.000285,0.685145,-0.051513,0.032323,0.999999,0.000564,0.000899,-0.000575,0.999928,0.011958,-0.000892,-0.011958,0.999928
05065,2,0,-73.0000,9.528630,0.316842,-2.412203,-0.028493,-0.025841,0.021560,0.002790,-0.005237,-0.010163,-0.420035,-0.509531,-0.629089,0.095287,0.003164,-0.024119,1.000000,0.000014,-0.000026,-0.000051,0.999982,0.005953,-0.000404,0.000281,0.682113,-0.046454,0.031940,1.000000,0.000557,0.000811,-0.000567,0.999929,0.011905,-0.000804,-0.011905,0.999929
05066,2,0,-73.0000,9.508268,0.257955,-2.368456,0.018809,0.025960,-0.010532,0.002581,-0.006715,-0.012542,-0.409561,-0.508236,-0.627961,0.095084,0.002574,-0.023681,1.000000,0.000013,-0.000034,-0.000063,0.999982,0.005914,-0.000352,0.000291,0.677693,-0.040494,0.033059,1.000000,0.000577,0.000707,-0.000585,0.999930,0.011828,-0.000700,-0.011828,0.999930
05067,2,0,-74.0000,9.535071,0.264330,-2.389761,0.004650,0.023633,0.020818,0.003865,-0.000065,-0.012401,-0.419210,-0.503795,-0.630808,0.095351,0.002638,-0.023898,1.000000,0.000019,-0.000000,-0.000062,0.999983,0.005873,-0.000333,0.000317,0.673015,-0.038366,0.036152,1.000000,0.000631,0.000670,-0.000639,0.999931,0.011746,-0.000662,-0.011746,0.999931
05068,2,0,-74.0000,9.497732,0.310509,-2.426364,-0.046480,-0.014869,-0.005130,0.004440,-0.002488,-0.008959,-0.412891,-0.507709,-0.634422,0.094978,0.003101,-0.024262,1.000000,0.000022,-0.000012,-0.000045,0.999983,0.005851,-0.000305,0.000332,0.670424,-0.035144,0.037874,1.000000,0.000661,0.000613,-0.000668,0.999931,0.011701,-0.000606,-0.011701,0.999931
05069,2,0,-74.0000,9.501261,0.315364,-2.392524,-0.013496,-0.024788,-0.009790,0.004440,-0.002488,-0.008960,-0.408963,-0.506433,-0.629875,0.095013,0.003150,-0.023924,1.000000,0.000022,-0.000012,-0.000045,0.999983,0.005827,-0.000276,0.000362,0.667760,-0.031918,0.041297,1.000000,0.000721,0.000557,-0.000727,0.999932,0.011654,-0.000549,-0.011655,0.999932
05070,2,0,-74.0000,9.542653,0.284788,-2.375684,0.017994,0.002617,0.025345,0.003003,0.002173,-0.008222,-0.409349,-0.504072,-0.640103,0.095426,0.002844,-0.023758,1.000000,0.000015,0.000011,-0.000041,0.999983,0.005803,-0.000272,0.000370,0.664939,-0.031391,0.042196,1.000000,0.000736,0.000548,-0.000743,0.999932,0.011605,-0.000539,-0.011606,0.999933
05071,2,0,-74.0000,9.516301,0.290135,-2.408137,-0.020274,0.003547,0.007846,-0.003708,0.003410,-0.008036,-0.412155,-0.512732,-0.639141,0.095163,0.002897,-0.024083,1.000000,-0.000019,0.000017,-0.000040,0.999983,0.005768,-0.000271,0.000340,0.661003,-0.031309,0.038729,1.000000,0.000676,0.000546,-0.000682,0.999933,0.011536,-0.000539,-0.011537,0.999933
05072,2,0,-73.0000,9.516350,0.291095,-2.407830,-0.020102,0.003297,0.007846,-0.010792,0.002615,-0.008480,-0.415203,-0.518454,-0.628045,0.095163,0.002906,-0.024080,1.000000,-0.000054,0.000013,-0.000042,0.999984,0.005725,-0.000268,0.000281,0.656065,-0.030918,0.032010,1.000000,0.000559,0.000540,-0.000565,0.999934,0.011450,-0.000533,-0.011451,0.999934
05073,2,0,-73.0000,9.530453,0.192780,-2.414523,-0.007081,0.102085,0.020224,-0.002475,0.003205,-0.011588,-0.411503,-0.508036,-0.636787,0.095304,0.001922,-0.024147,1.000000,-0.000012,0.000016,-0.000058,0.999984,0.005679,-0.000265,0.000266,0.650715,-0.030573,0.030347,1.000000,0.000530,0.000534,-0.000536,0.999935,0.011357,-0.000528,-0.011357,0.999935
05074,2,0,-73.0000,9.535069,0.270743,-2.389050,0.005906,0.021884,0.020821,-0.001570,0.001891,-0.011643,-0.410684,-0.512532,-0.634476,0.095351,0.002702,-0.023891,1.000000,-0.000008,0.000009,-0.000058,0.999984,0.005632,-0.000256,0.000256,0.645405,-0.029535,0.029179,1.000000,0.000509,0.000515,-0.000515,0.999936,0.011264,-0.000510,-0.011264,0.999936
05075,2,0,-72.0000,9.528812,0.336384,-2.465936,-0.079513,-0.029248,0.035413,-0.005195,0.001216,-0.010991,-0.415839,-0.513604,-0.638964,0.095288,0.003358,-0.024660,1.000000,-0.000026,0.000006,-0.000055,0.999984,0.005585,-0.000243,0.000224,0.639989,-0.027990,0.025504,1.000000,0.000445,0.000489,-0.000451,0.999938,0.011170,-0.000484,-0.011170,0.999937
05076,2,0,-72.0000,9.527371,0.254935,-2.403123,-0.006543,0.041664,0.016301,-0.003545,0.003965,-0.009786,-0.411329,-0.522283,-0.633306,0.095273,0.002544,-0.024033,1.000000,-0.000018,0.000020,-0.000049,0.999985,0.005543,-0.000246,0.000202,0.635226,-0.028287,0.023015,1.000000,0.000402,0.000494,-0.000407,0.999938,0.011087,-0.000489,-0.011087,0.999938
05077,2,0,-72.0000,9.515940,0.286340,-2.353082,0.033602,0.002885,-0.006008,0.001975,-0.002074,-0.001858,-0.409710,-0.506951,-0.627420,0.095160,0.002863,-0.023530,1.000000,0.000010,-0.000010,-0.000009,0.999985,0.005553,-0.000225,0.000194,0.636328,-0.025871,0.022085,1.000000,0.000385,0.000452,-0.000390,0.999938,0.011106,-0.000447,-0.011106,0.999938
05078,2,0,-72.0000,9.497753,0.319302,-2.425140,-0.044683,-0.017376,-0.005125,0.001353,-0.000574,-0.009429,-0.417404,-0.512510,-0.630762,0.094978,0.003189,-0.024251,1.000000,0.000007,-0.000003,-0.000047,0.999985,0.005523,-0.000205,0.000195,0.632870,-0.023667,0.022189,1.000000,0.000387,0.000413,-0.000392,0.999939,0.011045,-0.000409,-0.011046,0.999939
05079,2,0,-72.0000,9.519992,0.301555,-2.372831,0.013952,-0.008228,0.003180,-0.002063,0.000228,-0.006398,-0.411267,-0.509163,-0.639114,0.095200,0.003012,-0.023728,1.000000,-0.000010,0.000001,-0.000032,0.999985,0.005503,-0.000193,0.000181,0.630651,-0.022204,0.020657,1.000000,0.000361,0.000388,-0.000365,0.999939,0.011007,-0.000384,-0.011007,0.999939
05080,2,0,-72.0000,9.542741,0.293560,-2.374262,0.019796,0.000045,0.025342,-0.004782,-0.001762,-0.005801,-0.407223,-0.518482,-0.632833,0.095428,0.002932,-0.023742,1.000000,-0.000024,-0.000009,-0.000029,0.999985,0.005484,-0.000171,0.000148,0.628430,-0.019634,0.016826,1.000000,0.000294,0.000343,-0.000297,0.999940,0.010968,-0.000339,-0.010968,0.999940
05081,2,0,-72.0000,9.504452,0.266815,-2.401932,-0.011310,0.031821,-0.005856,-0.007870,0.000149,-0.006268,-0.413925,-0.513291,-0.641715,0.095045,0.002664,-0.024019,1.000000,-0.000039,0.000001,-0.000031,0.999985,0.005458,-0.000156,0.000090,0.625409,-0.017889,0.010191,1.000000,0.000178,0.000312,-0.000181,0.999940,0.010915,-0.000310,-0.010915,0.999940
05082,2,0,-72.0000,9.542344,0.232292,-2.418879,-0.012605,0.068897,0.033954,-0.009145,0.005363,-0.007278,-0.420319,-0.506520,-0.629269,0.095423,0.002318,-0.024191,1.000000,-0.000046,0.000027,-0.000036,0.999985,0.005420,-0.000167,0.000038,0.621104,-0.019179,0.004266,1.000000,0.000074,0.000335,-0.000078,0.999941,0.010840,-0.000334,-0.010840,0.999941
05083,2,0,-72.0000,9.496837,0.250364,-2.415791,-0.023785,0.051601,-0.010370,-0.005315,0.001584,-0.005117,-0.418104,-0.513468,-0.626807,0.094968,0.002501,-0.024159,1.000000,-0.000027,0.000008,-0.000026,0.999985,0.005401,-0.000162,0.000015,0.618879,-0.018563,0.001674,1.000000,0.000029,0.000324,-0.000033,0.999942,0.010801,-0.000324,-0.010801,0.999942
05084,2,0,-72.0000,9.535103,0.278574,-2.388014,0.007698,0.019308,0.020825,-0.006429,0.001422,-0.007442,-0.413841,-0.513127,-0.637455,0.095351,0.002781,-0.023881,1.000000,-0.000032,0.000007,-0.000037,0.999986,0.005369,-0.000154,-0.000024,0.615231,-0.017627,-0.002788,1.000000,-0.000049,0.000308,0.000045,0.999942,0.010738,-0.000308,-0.010738,0.999942
05085,2,0,-72.0000,9.504104,0.260420,-2.347182,0.042163,0.031679,-0.019716,-0.010467,0.003724,-0.011984,-0.408088,-0.514267,-0.636140,0.095041,0.002597,-0.023474,1.000000,-0.000052,0.000019,-0.000060,0.999986,0.005310,-0.000154,-0.000067,0.608482,-0.017584,-0.007804,1.000000,-0.000136,0.000307,0.000133,0.999944,0.010620,-0.000308,-0.010620,0.999944
05086,2,0,-72.0000,9.526960,0.253054,-2.348142,0.048012,0.039947,0.002448,-0.003383,0.004523,-0.011538,-0.414420,-0.509712,-0.635042,0.095269,0.002525,-0.023484,1.000000,-0.000017,0.000023,-0.000058,0.999986,0.005260,-0.000158,-0.000086,0.602731,-0.018032,-0.009948,1.000000,-0.000174,0.000315,0.000170,0.999945,0.010519,-0.000317,-0.010519,0.999945
05087,2,0,-72.0000,9.505660,0.345425,-2.408838,-0.030292,-0.039973,-0.000610,-0.005730,0.004564,-0.010311,-0.420024,-0.512019,-0.629343,0.095056,0.003449,-0.024091,1.000000,-0.000029,0.000023,-0.000052,0.999986,0.005213,-0.000162,-0.000120,0.597362,-0.018478,-0.013901,1.000000,-0.000243,0.000322,0.000239,0.999946,0.010426,-0.000325,-0.010426,0.999946
05088,2,0,-73.0000,9.500714,0.259861,-2.380037,0.009896,0.040617,-0.015039,-0.004825,0.003250,-0.010366,-0.410571,-0.516947,-0.632994,0.095007,0.002593,-0.023802,1.000000,-0.000024,0.000016,-0.000052,0.999987,0.005168,-0.000161,-0.000148,0.592169,-0.018310,-0.017032,1.000000,-0.000297,0.000320,0.000294,0.999947,0.010335,-0.000323,-0.010335,0.999947
05089,2,0,-73.0000,9.531800,0.280346,-2.420243,-0.024241,0.027679,0.025505,-0.004661,0.003806,-0.012116,-0.411912,-0.508672,-0.629885,0.095318,0.002797,-0.024204,1.000000,-0.000023,0.000019,-0.000061,0.999987,0.005116,-0.000161,-0.000166,0.586206,-0.018343,-0.019076,1.000000,-0.000333,0.000320,0.000330,0.999948,0.010231,-0.000324,-0.010231,0.999948
05090,2,0,-74.0000,9.501346,0.272107,-2.433029,-0.042563,0.039198,-0.001169,-0.004825,0.003251,-0.010367,-0.410939,-0.506433,-0.637686,0.095013,0.002716,-0.024332,1.000000,-0.000024,0.000016,-0.000052,0.999987,0.005070,-0.000160,-0.000193,0.581012,-0.018176,-0.022207,1.000000,-0.000388,0.000317,0.000384,0.999949,0.010140,-0.000321,-0.010140,0.999949
05091,2,0,-74.0000,9.531411,0.272910,-2.365740,0.028913,0.028061,0.011638,-0.001780,0.006353,-0.014462,-0.409599,-0.507037,-0.635002,0.095314,0.002722,-0.023660,1.000000,-0.000009,0.000032,-0.000072,0.999987,0.005006,-0.000169,-0.000199,0.573696,-0.019292,-0.022854,1.000000,-0.000399,0.000337,0.000395,0.999950,0.010013,-0.000341,-0.010013,0.999950
05092,2,0,-74.0000,9.524632,0.329020,-2.388564,-0.003765,-0.022158,0.012362,-0.005775,0.003644,-0.014444,-0.408779,-0.514058,-0.627907,0.095246,0.003283,-0.023887,1.000000,-0.000029,0.000018,-0.000072,0.999988,0.004940,-0.000167,-0.000226,0.566099,-0.018957,-0.025936,1.000000,-0.000453,0.000331,0.000449,0.999951,0.009880,-0.000335,-0.009880,0.999951
05093,2,0,-74.0000,9.512855,0.298463,-2.383109,0.003601,0.008443,-0.001336,-0.008122,0.003684,-0.013218,-0.412491,-0.507110,-0.636286,0.095128,0.002977,-0.023833,1.000000,-0.000041,0.000018,-0.000066,0.999988,0.004878,-0.000164,-0.000271,0.558944,-0.018649,-0.031139,1.000000,-0.000543,0.000325,0.000540,0.999952,0.009755,-0.000331,-0.009755,0.999952
05094,2,0,-74.0000,9.528020,0.273142,-2.398543,-0.003356,0.036993,0.016321,-0.005569,0.005121,-0.012065,-0.413607,-0.513890,-0.637011,0.095280,0.002725,-0.023988,1.000000,-0.000028,0.000026,-0.000060,0.999988,0.004822,-0.000171,-0.000299,0.552542,-0.019376,-0.034412,1.000000,-0.000601,0.000338,0.000597,0.999953,0.009644,-0.000344,-0.009643,0.999953
05095,2,0,-74.0000,9.505340,0.283126,-2.396543,-0.008852,0.028228,-0.005843,-0.013189,0.007665,-0.011830,-0.408508,-0.506597,-0.632005,0.095053,0.002824,-0.023969,1.000000,-0.000066,0.000038,-0.000059,0.999989,0.004756,-0.000189,-0.000362,0.544973,-0.021427,-0.041591,1.000000,-0.000726,0.000374,0.000722,0.999955,0.009511,-0.000381,-0.009511,0.999955
05096,2,0,-73.0000,9.509063,0.288861,-2.361686,0.024120,0.018270,-0.010526,-0.017764,0.007381,-0.015258,-0.405639,-0.512146,-0.634997,0.095090,0.002879,-0.023621,1.000000,-0.000089,0.000037,-0.000076,0.999989,0.004668,-0.000203,-0.000445,0.534901,-0.023066,-0.051152,1.000000,-0.000893,0.000403,0.000889,0.999956,0.009336,-0.000411,-0.009335,0.999956
05097,2,0,-73.0000,9.547935,0.328151,-2.386852,0.002833,-0.014927,0.034525,-0.015047,0.009375,-0.015855,-0.412775,-0.508836,-0.637221,0.095478,0.003272,-0.023873,1.000000,-0.000075,0.000047,-0.000079,0.999989,0.004579,-0.000226,-0.000524,0.524736,-0.025617,-0.060186,0.999999,-0.001050,0.000447,0.001046,0.999958,0.009158,-0.000457,-0.009158,0.999958
05098,2,0,-73.0000,9.497544,0.260545,-2.355043,0.031675,0.048630,-0.024221,-0.009980,0.005396,-0.017246,-0.409044,-0.510566,-0.628344,0.094975,0.002596,-0.023553,1.000000,-0.000050,0.000027,-0.000086,0.999990,0.004493,-0.000229,-0.000568,0.514852,-0.025989,-0.065182,0.999999,-0.001138,0.000454,0.001134,0.999959,0.008986,-0.000464,-0.008985,0.999960
05099,2,0,-73.0000,9.517639,0.322286,-2.398743,-0.015309,-0.003663,0.007855,-0.006683,0.004963,-0.014396,-0.406654,-0.511020,-0.635748,0.095176,0.003215,-0.023990,1.000000,-0.000033,0.000025,-0.000072,0.999990,0.004425,-0.000232,-0.000599,0.507110,-0.026334,-0.068776,0.999999,-0.001200,0.000460,0.001196,0.999960,0.008851,-0.000470,-0.008850,0.999961
05100,2,0,-72.0000,9.490794,0.318740,-2.377268,-0.000835,-0.001843,-0.023501,-0.005123,0.005877,-0.021451,-0.405471,-0.505643,-0.632773,0.094908,0.003177,-0.023776,1.000000,-0.000026,0.000029,-0.000107,0.999990,0.004324,-0.000235,-0.000614,0.495560,-0.026605,-0.070478,0.999999,-0.001230,0.000464,0.001226,0.999962,0.008649,-0.000475,-0.008648,0.999962
05101,2,0,-73.0000,9.532902,0.299315,-2.413623,-0.022054,0.024635,0.025518,-0.005777,0.003651,-0.014453,-0.410964,-0.514985,-0.640953,0.095329,0.002986,-0.024138,1.000000,-0.000029,0.000018,-0.000072,0.999991,0.004258,-0.000230,-0.000651,0.487966,-0.026081,-0.074760,0.999999,-0.001305,0.000455,0.001301,0.999963,0.008517,-0.000466,-0.008516,0.999964
05102,2,0,-72.0000,9.491505,0.332152,-2.429808,-0.053253,-0.003207,-0.009621,-0.003273,0.010104,-0.017862,-0.413578,-0.510439,-0.637270,0.094914,0.003313,-0.024303,1.000000,-0.000016,0.000051,-0.000089,0.999991,0.004173,-0.000257,-0.000661,0.478248,-0.029088,-0.075856,0.999999,-0.001324,0.000508,0.001320,0.999964,0.008347,-0.000519,-0.008346,0.999965
05103,2,0,-73.0000,9.540879,0.320714,-2.397453,-0.008885,0.003834,0.030021,0.000187,0.010228,-0.016762,-0.410039,-0.507877,-0.633129,0.095408,0.003199,-0.023979,1.000000,0.000001,0.000051,-0.000084,0.999991,0.004098,-0.000283,-0.000656,0.469644,-0.032165,-0.075270,0.999999,-0.001314,0.000561,0.001309,0.999966,0.008197,-0.000572,-0.008196,0.999966
05104,2,0,-73.0000,9.480289,0.366020,-2.377902,-0.012982,-0.042228,-0.031976,-0.002324,0.009709,-0.013786,-0.414660,-0.509712,-0.635989,0.094802,0.003653,-0.023784,1.000000,-0.000012,0.000049,-0.000069,0.999992,0.004034,-0.000311,-0.000666,0.462328,-0.035341,-0.076414,0.999999,-0.001334,0.000617,0.001329,0.999967,0.008069,-0.000628,-0.008068,0.999967
05105,2,0,-73.0000,9.533025,0.295474,-2.356508,0.031451,0.024475,0.011640,-0.001580,0.007839,-0.012091,-0.405754,-0.509530,-0.626154,0.095330,0.002949,-0.023569,1.000000,-0.000008,0.000039,-0.000060,0.999992,0.003981,-0.000331,-0.000671,0.456266,-0.037568,-0.077024,0.999999,-0.001344,0.000656,0.001339,0.999967,0.007963,-0.000666,-0.007962,0.999968
05106,2,0,-74.0000,9.522682,0.347305,-2.413090,-0.034049,-0.016008,0.017047,-0.003764,0.008434,-0.012616,-0.414658,-0.511156,-0.634982,0.095226,0.003467,-0.024135,1.000000,-0.000019,0.000042,-0.000063,0.999992,0.003922,-0.000353,-0.000689,0.449508,-0.040128,-0.079155,0.999999,-0.001382,0.000700,0.001376,0.999968,0.007845,-0.000711,-0.007844,0.999969
05107,2,0,-74.0000,9.488471,0.387961,-2.360648,0.000339,-0.063308,-0.027481,-0.009581,0.014281,-0.012926,-0.413022,-0.505580,-0.631366,0.094883,0.003872,-0.023613,1.000000,-0.000048,0.000071,-0.000065,0.999992,0.003851,-0.000403,-0.000737,0.441382,-0.045903,-0.084578,0.999999,-0.001476,0.000801,0.001470,0.999969,0.007703,-0.000813,-0.007702,0.999970
05108,2,0,-74.0000,9.530125,0.295405,-2.387517,-0.000826,0.033412,0.016334,-0.011552,0.010415,-0.010637,-0.415018,-0.511515,-0.633128,0.095300,0.002948,-0.023880,1.000000,-0.000058,0.000052,-0.000053,0.999992,0.003791,-0.000437,-0.000795,0.434433,-0.049738,-0.091271,0.999998,-0.001593,0.000868,0.001586,0.999970,0.007582,-0.000880,-0.007581,0.999971
05109,2,0,-74.0000,9.507537,0.305242,-2.385089,-0.006352,0.024642,-0.005831,-0.004305,0.011781,-0.011933,-0.415211,-0.510875,-0.636353,0.095074,0.003046,-0.023857,1.000000,-0.000022,0.000059,-0.000060,0.999993,0.003733,-0.000477,-0.000809,0.427760,-0.054268,-0.092873,0.999998,-0.001621,0.000947,0.001614,0.999971,0.007466,-0.000959,-0.007464,0.999972
05110,2,0,-75.0000,9.527073,0.293586,-2.419431,-0.033282,0.042616,0.021032,0.002451,0.011474,-0.007975,-0.413173,-0.510157,-0.634854,0.095269,0.002932,-0.024200,1.000000,0.000012,0.000057,-0.000040,0.999993,0.003701,-0.000518,-0.000802,0.424132,-0.059013,-0.092137,0.999998,-0.001608,0.001030,0.001600,0.999971,0.007402,-0.001042,-0.007401,0.999972
05111,2,0,-75.0000,9.526715,0.284427,-2.364778,0.019682,0.043201,0.007146,0.006779,0.009370,-0.011059,-0.414048,-0.513286,-0.636144,0.095266,0.002840,-0.023652,1.000000,0.000034,0.000047,-0.000055,0.999993,0.003662,-0.000546,-0.000766,0.419695,-0.062263,-0.088017,0.999998,-0.001536,0.001087,0.001528,0.999972,0.007325,-0.001098,-0.007323,0.999973
05112,2,0,-75.0000,9.527585,0.358159,-2.372542,-0.000231,-0.027293,0.012350,0.008382,0.011205,-0.013983,-0.413777,-0.508709,-0.632183,0.095275,0.003576,-0.023731,1.000000,0.000042,0.000056,-0.000070,0.999993,0.003609,-0.000581,-0.000724,0.413630,-0.066310,-0.083154,0.999998,-0.001451,0.001157,0.001443,0.999973,0.007219,-0.001168,-0.007217,0.999973
05113,2,0,-75.0000,9.527121,0.286497,-2.362894,0.020027,0.042677,0.007147,0.005503,0.008652,-0.011640,-0.416283,-0.504967,-0.629534,0.095270,0.002860,-0.023633,1.000000,0.000028,0.000043,-0.000058,0.999993,0.003567,-0.000606,-0.000694,0.408804,-0.069108,-0.079811,0.999998,-0.001393,0.001206,0.001384,0.999974,0.007135,-0.001216,-0.007133,0.999974
05114,2,0,-75.0000,9.485753,0.318573,-2.378983,-0.011191,0.014857,-0.027995,0.003155,0.008688,-0.010415,-0.407166,-0.506846,-0.638640,0.094857,0.003181,-0.023794,1.000000,0.000016,0.000043,-0.000052,0.999993,0.003527,-0.000631,-0.000682,0.404197,-0.072050,-0.078398,0.999998,-0.001368,0.001258,0.001359,0.999974,0.007055,-0.001267,-0.007053,0.999974
05115,2,0,-75.0000,9.508754,0.311040,-2.379479,-0.005311,0.023103,-0.005827,0.005666,0.009210,-0.013392,-0.409865,-0.510852,-0.638461,0.095087,0.003105,-0.023799,1.000000,0.000028,0.000046,-0.000067,0.999994,0.003475,-0.000656,-0.000651,0.398267,-0.074938,-0.074833,0.999998,-0.001306,0.001308,0.001297,0.999975,0.006951,-0.001317,-0.006949,0.999975
05116,2,0,-75.0000,9.531702,0.303467,-2.380198,0.000557,0.031348,0.016341,0.010413,0.004122,-0.011275,-0.404903,-0.502913,-0.630399,0.095317,0.003031,-0.023804,1.000000,0.000052,0.000021,-0.000056,0.999994,0.003443,-0.000659,-0.000603,0.394627,-0.075245,-0.069357,0.999998,-0.001211,0.001313,0.001201,0.999976,0.006887,-0.001322,-0.006886,0.999975
05117,2,0,-74.0000,9.513086,0.327030,-2.397901,-0.024937,0.012028,0.003366,0.008922,0.007863,-0.014673,-0.415637,-0.503967,-0.632720,0.095130,0.003264,-0.023983,1.000000,0.000045,0.000039,-0.000073,0.999994,0.003391,-0.000675,-0.000565,0.388584,-0.077169,-0.065045,0.999998,-0.001135,0.001347,0.001126,0.999976,0.006782,-0.001355,-0.006780,0.999976
05118,2,0,-74.0000,9.516726,0.332207,-2.363103,0.008025,0.002047,-0.001336,0.008758,0.007306,-0.012923,-0.410048,-0.511928,-0.629349,0.095167,0.003317,-0.023634,1.000000,0.000044,0.000037,-0.000065,0.999994,0.003346,-0.000692,-0.000523,0.383515,-0.079111,-0.060196,0.999998,-0.001051,0.001381,0.001041,0.999977,0.006694,-0.001388,-0.006692,0.999977
05119,2,0,-74.0000,9.535584,0.310619,-2.344175,0.033890,0.020838,0.011640,0.004062,0.007376,-0.010472,-0.406216,-0.513831,-0.636110,0.095355,0.003102,-0.023445,1.000000,0.000020,0.000037,-0.000052,0.999994,0.003309,-0.000711,-0.000503,0.379250,-0.081309,-0.057869,0.999998,-0.001010,0.001419,0.001001,0.999978,0.006619,-0.001426,-0.006618,0.999977
05120,2,0,-74.0000,9.532236,0.307575,-2.377532,0.001269,0.030318,0.016344,0.002041,0.008526,-0.012751,-0.411968,-0.505384,-0.634403,0.095322,0.003070,-0.023779,1.000000,0.000010,0.000043,-0.000064,0.999994,0.003257,-0.000734,-0.000493,0.373222,-0.083932,-0.056751,0.999998,-0.000990,0.001465,0.000981,0.999978,0.006514,-0.001471,-0.006512,0.999978
05121,2,0,-74.0000,9.521309,0.349323,-2.380325,-0.011439,-0.009310,0.007856,0.006029,0.011245,-0.012767,-0.412586,-0.509880,-0.637773,0.095212,0.003488,-0.023808,1.000000,0.000030,0.000056,-0.000064,0.999994,0.003207,-0.000769,-0.000470,0.367561,-0.087964,-0.054150,0.999998,-0.000945,0.001535,0.000935,0.999979,0.006415,-0.001541,-0.006414,0.999978
05122,2,0,-74.0000,9.525621,0.364307,-2.398939,-0.031266,-0.020130,0.017049,0.006775,0.009375,-0.011069,-0.414002,-0.510071,-0.630111,0.095255,0.003639,-0.023994,1.000000,0.000034,0.000047,-0.000055,0.999995,0.003168,-0.000798,-0.000439,0.363037,-0.091244,-0.050619,0.999998,-0.000883,0.001593,0.000873,0.999980,0.006336,-0.001598,-0.006335,0.999979
05123,2,0,-74.0000,9.552153,0.360891,-2.365153,0.007401,-0.021647,0.034510,0.003844,0.011838,-0.013296,-0.411835,-0.496556,-0.635948,0.095520,0.003603,-0.023657,1.000000,0.000019,0.000059,-0.000066,0.999995,0.003113,-0.000836,-0.000418,0.356775,-0.095660,-0.048165,0.999998,-0.000841,0.001670,0.000830,0.999980,0.006227,-0.001675,-0.006225,0.999979
05124,2,0,-74.0000,9.506783,0.316181,-2.406315,-0.036511,0.030526,-0.001113,0.002607,0.012035,-0.009741,-0.410514,-0.503817,-0.626712,0.095067,0.003157,-0.024069,1.000000,0.000013,0.000060,-0.000049,0.999995,0.003073,-0.000879,-0.000408,0.352149,-0.100553,-0.047080,0.999998,-0.000822,0.001755,0.000811,0.999981,0.006146,-0.001760,-0.006145,0.999980
05125,2,0,-74.0000,9.507045,0.317267,-2.405137,-0.036331,0.030283,-0.001112,0.007630,0.013083,-0.015697,-0.411253,-0.509444,-0.639873,0.095069,0.003166,-0.024057,1.000000,0.000038,0.000065,-0.000078,0.999995,0.003009,-0.000921,-0.000361,0.344817,-0.105427,-0.041701,0.999998,-0.000728,0.001840,0.000717,0.999982,0.006018,-0.001844,-0.006017,0.999980
05126,2,0,-74.0000,9.465760,0.349367,-2.420852,-0.067567,0.002489,-0.036255,0.013474,0.014096,-0.011682,-0.412108,-0.510239,-0.632605,0.094656,0.003490,-0.024215,1.000000,0.000067,0.000070,-0.000058,0.999995,0.002971,-0.000972,-0.000296,0.340450,-0.111336,-0.034266,0.999998,-0.000598,0.001943,0.000587,0.999982,0.005942,-0.001947,-0.005941,0.999980
05127,2,0,-74.0000,9.461328,0.326504,-2.346164,0.005402,0.013622,-0.059349,0.013055,0.017082,-0.016890,-0.406347,-0.502232,-0.637588,0.094612,0.003259,-0.023470,1.000000,0.000065,0.000085,-0.000084,0.999995,0.002905,-0.001033,-0.000229,0.332972,-0.118328,-0.026640,0.999998,-0.000465,0.002065,0.000453,0.999983,0.005811,-0.002068,-0.005810,0.999981
05128,2,0,-74.0000,9.465258,0.269286,-2.355344,0.005694,0.073039,-0.055336,0.012107,0.017478,-0.020977,-0.409039,-0.506919,-0.635900,0.094651,0.002684,-0.023562,1.000000,0.000061,0.000087,-0.000105,0.999995,0.002819,-0.001094,-0.000159,0.323006,-0.125257,-0.018603,0.999998,-0.000325,0.002186,0.000312,0.999984,0.005637,-0.002188,-0.005637,0.999982
05129,2,0,-74.0000,9.503171,0.226069,-2.316739,0.057313,0.110901,-0.029383,0.014964,0.025973,-0.023769,-0.415631,-0.506138,-0.637254,0.095029,0.002251,-0.023180,1.000000,0.000075,0.000130,-0.000119,0.999996,0.002714,-0.001192,-0.000078,0.311067,-0.136516,-0.009303,0.999997,-0.000162,0.002383,0.000149,0.999985,0.005429,-0.002383,-0.005429,0.999982
05130,2,0,-74.0000,9.579314,0.147951,-2.294802,0.107525,0.186028,0.036429,0.032510,0.025909,-0.030020,-0.419269,-0.504517,-0.630542,0.095790,0.001469,-0.022960,1.000000,0.000163,0.000130,-0.000150,0.999996,0.002602,-0.001286,0.000104,0.298197,-0.147405,0.011501,0.999997,0.000201,0.002573,-0.000214,0.999986,0.005204,-0.002572,-0.005205,0.999983
05131,2,0,-74.0000,9.595869,0.331223,-2.281268,0.093014,0.004683,0.055743,0.042936,0.021291,-0.022129,-0.419705,-0.512310,-0.641008,0.095957,0.003307,-0.022822,1.000000,0.000215,0.000106,-0.000111,0.999996,0.002545,-0.001365,0.000337,0.291589,-0.156492,0.038192,0.999996,0.000667,0.002731,-0.000680,0.999987,0.005089,-0.002728,-0.005091,0.999983
05132,2,0,-74.0000,9.589846,0.397255,-2.356599,0.007483,-0.046316,0.070344,0.029813,0.017976,-0.028997,-0.426055,-0.504585,-0.641165,0.095897,0.003962,-0.023574,1.000000,0.000149,0.000090,-0.000145,0.999996,0.002441,-0.001421,0.000503,0.279637,-0.162983,0.057195,0.999995,0.000998,0.002845,-0.001012,0.999988,0.004881,-0.002840,-0.004883,0.999984
05133,2,0,-74.0000,9.559753,0.389142,-2.368398,-0.010849,-0.034746,0.043696,0.024130,0.014701,-0.016029,-0.419243,-0.503995,-0.629793,0.095596,0.003887,-0.023691,1.000000,0.000121,0.000074,-0.000080,0.999996,0.002395,-0.001472,0.000641,0.274324,-0.168867,0.073027,0.999995,0.001275,0.002947,-0.001289,0.999988,0.004788,-0.002941,-0.004792,0.999984
05134,2,0,-74.0000,9.595217,0.423651,-2.427216,-0.064964,-0.058209,0.093444,0.020309,0.012534,-0.017767,-0.414127,-0.501724,-0.632346,0.095951,0.004230,-0.024278,1.000000,0.000102,0.000063,-0.000089,0.999996,0.002337,-0.001511,0.000746,0.267709,-0.173322,0.085078,0.999994,0.001485,0.003025,-0.001499,0.999988,0.004672,-0.003018,-0.004677,0.999985
05135,2,0,-74.0000,9.529851,0.381779,-2.379345,-0.029014,-0.023435,0.017048,0.014338,0.011876,-0.015897,-0.407376,-0.502264,-0.630528,0.095297,0.003812,-0.023799,1.000000,0.000072,0.000059,-0.000079,0.999996,0.002283,-0.001548,0.000829,0.261428,-0.177598,0.094577,0.999994,0.001651,0.003100,-0.001665,0.999988,0.004563,-0.003092,-0.004568,0.999985
05136,2,0,-72.0000,9.522531,0.364738,-2.392874,-0.041631,-0.003375,0.012572,0.000961,0.009277,-0.010976,-0.417753,-0.513196,-0.636717,0.095224,0.003642,-0.023933,1.000000,0.000005,0.000046,-0.000055,0.999996,0.002237,-0.001576,0.000831,0.256152,-0.180810,0.094870,0.999994,0.001656,0.003156,-0.001670,0.999989,0.004471,-0.003148,-0.004476,0.999985
05137,2,0,-74.0000,9.522319,0.293457,-2.382947,-0.021309,0.066583,0.007406,-0.004188,0.011402,-0.017876,-0.413906,-0.510957,-0.633158,0.095222,0.002926,-0.023835,1.000000,-0.000021,0.000057,-0.000089,0.999996,0.002151,-0.001608,0.000813,0.246309,-0.184466,0.092756,0.999994,0.001619,0.003220,-0.001633,0.999989,0.004299,-0.003213,-0.004304,0.999986
05138,2,0,-73.0000,9.525166,0.289345,-2.294258,0.064429,0.057397,-0.011224,0.005296,0.007182,-0.014056,-0.423870,-0.501497,-0.635674,0.095251,0.002887,-0.022946,1.000000,0.000026,0.000036,-0.000070,0.999996,0.002097,-0.001623,0.000840,0.240140,-0.186211,0.095842,0.999993,0.001673,0.003250,-0.001686,0.999990,0.004191,-0.003243,-0.004197,0.999986
05139,2,0,-73.0000,9.514825,0.341011,-2.350935,-0.001115,0.016960,-0.005813,0.010879,0.011746,-0.017008,-0.418311,-0.505289,-0.639346,0.095147,0.003403,-0.023515,1.000000,0.000054,0.000059,-0.000085,0.999996,0.002033,-0.001659,0.000907,0.232806,-0.190293,0.103575,0.999993,0.001808,0.003321,-0.001821,0.999990,0.004063,-0.003314,-0.004069,0.999986
05140,2,0,-73.0000,9.499624,0.369181,-2.334314,0.006124,-0.012082,-0.023510,0.009048,0.007511,-0.020598,-0.415799,-0.501320,-0.635197,0.094996,0.003683,-0.023347,1.000000,0.000045,0.000038,-0.000103,0.999996,0.001952,-0.001670,0.000960,0.223541,-0.191607,0.109661,0.999993,0.001914,0.003344,-0.001927,0.999991,0.003901,-0.003337,-0.003908,0.999987
05141,2,0,-73.0000,9.495593,0.357015,-2.314094,0.026302,-0.001768,-0.032704,0.004153,0.006095,-0.020531,-0.411368,-0.506106,-0.631533,0.094956,0.003561,-0.023144,1.000000,0.000021,0.000030,-0.000103,0.999996,0.001867,-0.001674,0.000996,0.213754,-0.192054,0.113719,0.999992,0.001985,0.003352,-0.001997,0.999991,0.003731,-0.003345,-0.003737,0.999987
05142,2,0,-73.0000,9.496300,0.368454,-2.367631,-0.026311,-0.002829,-0.018788,0.004763,-0.002267,-0.016620,-0.411523,-0.504862,-0.631997,0.094964,0.003677,-0.023675,1.000000,0.000024,-0.000011,-0.000083,0.999996,0.001808,-0.001641,0.001021,0.206985,-0.188213,0.116664,0.999993,0.002036,0.003285,-0.002048,0.999991,0.003613,-0.003278,-0.003619,0.999988
05143,2,0,-73.0000,9.525835,0.369675,-2.300847,0.045153,-0.014133,-0.006064,0.007144,-0.001375,-0.013709,-0.417820,-0.506338,-0.644759,0.095259,0.003691,-0.023008,1.000000,0.000036,-0.000007,-0.000069,0.999997,0.001766,-0.001613,0.001049,0.202191,-0.185073,0.119847,0.999993,0.002092,0.003230,-0.002103,0.999992,0.003529,-0.003223,-0.003536,0.999989
05144,2,0,-73.0000,9.503585,0.389045,-2.353570,-0.013177,-0.023666,-0.014318,0.004435,-0.003380,-0.013111,-0.417767,-0.504885,-0.633440,0.095037,0.003885,-0.023534,1.000000,0.000022,-0.000017,-0.000066,0.999997,0.001724,-0.001577,0.001068,0.197403,-0.180936,0.122097,0.999993,0.002131,0.003158,-0.002142,0.999992,0.003445,-0.003151,-0.003452,0.999989
05145,2,0,-73.0000,9.518893,0.363418,-2.369448,-0.020062,0.004870,0.003384,0.008612,0.000828,-0.010749,-0.411943,-0.504862,-0.633654,0.095189,0.003630,-0.023695,1.000000,0.000043,0.000004,-0.000054,0.999997,0.001696,-0.001563,0.001111,0.194118,-0.179347,0.127030,0.999993,0.002217,0.003130,-0.002228,0.999992,0.003388,-0.003123,-0.003395,0.999989
05146,2,0,-73.0000,9.511362,0.345937,-2.384023,-0.032673,0.024935,-0.001084,0.011545,-0.001626,-0.008514,-0.420431,-0.505761,-0.635284,0.095114,0.003457,-0.023839,1.000000,0.000058,-0.000008,-0.000043,0.999997,0.001683,-0.001540,0.001160,0.192674,-0.176654,0.132629,0.999993,0.002315,0.003083,-0.002325,0.999992,0.003363,-0.003075,-0.003370,0.999990
05147,2,0,-73.0000,9.515038,0.423570,-2.358817,-0.019877,-0.055314,-0.000658,0.004602,0.004036,-0.011182,-0.406831,-0.508091,-0.637466,0.095150,0.004231,-0.023590,1.000000,0.000023,0.000020,-0.000056,0.999997,0.001646,-0.001541,0.001182,0.188378,-0.176865,0.135211,0.999992,0.002360,0.003087,-0.002370,0.999992,0.003288,-0.003079,-0.003295,0.999990
05148,2,0,-73.0000,9.545142,0.361105,-2.336292,0.018950,0.002815,0.020829,0.005056,0.001976,-0.001826,-0.414705,-0.502687,-0.633963,0.095451,0.003611,-0.023364,1.000000,0.000025,0.000010,-0.000009,0.999997,0.001654,-0.001541,0.001192,0.189364,-0.176832,0.136354,0.999992,0.002380,0.003086,-0.002390,0.999992,0.003305,-0.003078,-0.003312,0.999990
05149,2,0,-73.0000,9.538035,0.415835,-2.359423,-0.013797,-0.047354,0.021512,0.001211,0.005740,-0.004013,-0.416862,-0.495016,-0.636691,0.095380,0.004157,-0.023597,1.000000,0.000006,0.000029,-0.000020,0.999997,0.001645,-0.001556,0.001179,0.188332,-0.178558,0.134780,0.999992,0.002352,0.003116,-0.002363,0.999992,0.003287,-0.003109,-0.003294,0.999990
05150,2,0,-73.0000,9.538605,0.353265,-2.403534,-0.046242,0.021819,0.030287,0.000298,0.007051,-0.003964,-0.423354,-0.504186,-0.632782,0.095385,0.003531,-0.024039,1.000000,0.000001,0.000035,-0.000020,0.999997,0.001634,-0.001579,0.001169,0.187014,-0.181180,0.133687,0.999992,0.002333,0.003162,-0.002344,0.999992,0.003264,-0.003155,-0.003271,0.999990
05151,2,0,-73.0000,9.538808,0.353485,-2.402696,-0.046079,0.021570,0.030288,0.000854,0.010565,-0.000955,-0.414941,-0.505575,-0.632896,0.095387,0.003535,-0.024032,1.000000,0.000004,0.000053,-0.000005,0.999997,0.001634,-0.001622,0.001175,0.187081,-0.186108,0.134324,0.999992,0.002344,0.003248,-0.002355,0.999992,0.003265,-0.003241,-0.003273,0.999989
05152,2,0,-73.0000,9.569443,0.363327,-2.388271,-0.027409,0.009469,0.056925,-0.009125,0.013106,0.000486,-0.417834,-0.499830,-0.637201,0.095693,0.003632,-0.023889,1.000000,-0.000046,0.000066,0.000002,0.999997,0.001628,-0.001679,0.001115,0.186332,-0.192559,0.127511,0.999992,0.002225,0.003361,-0.002236,0.999992,0.003252,-0.003354,-0.003260,0.999989
05153,2,0,-73.0000,9.531169,0.325942,-2.361131,-0.005729,0.042177,0.011902,-0.011669,0.011658,-0.000672,-0.413862,-0.508150,-0.636946,0.095310,0.003258,-0.023617,1.000000,-0.000058,0.000058,-0.000003,0.999997,0.001614,-0.001726,0.001050,0.184766,-0.198034,0.119976,0.999992,0.002094,0.003456,-0.002105,0.999993,0.003225,-0.003450,-0.003232,0.999989
05154,2,0,-73.0000,9.553552,0.308412,-2.307506,0.052945,0.051187,0.020147,-0.017342,0.011185,-0.006450,-0.414854,-0.505416,-0.634681,0.095534,0.003079,-0.023081,1.000000,-0.000087,0.000056,-0.000032,0.999997,0.001566,-0.001768,0.000959,0.179256,-0.202723,0.109520,0.999992,0.001911,0.003538,-0.001923,0.999993,0.003129,-0.003532,-0.003135,0.999989
05155,2,0,-73.0000,9.503865,0.312163,-2.284629,0.061684,0.044539,-0.033391,-0.018554,0.005444,-0.002439,-0.417361,-0.503164,-0.638075,0.095038,0.003118,-0.022849,1.000000,-0.000093,0.000027,-0.000012,0.999997,0.001541,-0.001783,0.000853,0.176412,-0.204467,0.097416,0.999992,0.001700,0.003569,-0.001711,0.999994,0.003079,-0.003563,-0.003085,0.999989
05156,2,0,-73.0000,9.557949,0.324195,-2.325680,0.033299,0.040106,0.029343,-0.026576,0.005002,-0.006995,-0.406886,-0.507687,-0.633926,0.095579,0.003236,-0.023260,1.000000,-0.000133,0.000025,-0.000035,0.999997,0.001484,-0.001793,0.000716,0.169901,-0.205597,0.081773,0.999993,0.001427,0.003588,-0.001438,0.999995,0.002965,-0.003584,-0.002970,0.999989
05157,2,0,-74.0000,9.513020,0.352338,-2.376460,-0.030737,0.022123,-0.001071,-0.022074,0.003468,-0.011830,-0.418127,-0.508899,-0.636119,0.095130,0.003515,-0.023767,1.000000,-0.000110,0.000017,-0.000059,0.999997,0.001411,-0.001791,0.000601,0.161568,-0.205279,0.068636,0.999993,0.001198,0.003583,-0.001208,0.999995,0.002820,-0.003579,-0.002824,0.999990
05158,2,0,-74.0000,9.512272,0.344011,-2.322499,0.022211,0.022660,-0.015001,-0.025111,0.000347,-0.007725,-0.412889,-0.503286,-0.623341,0.095123,0.003434,-0.023226,1.000000,-0.000126,0.000002,-0.000039,0.999997,0.001356,-0.001777,0.000472,0.155292,-0.203716,0.053806,0.999993,0.000939,0.003556,-0.000949,0.999996,0.002710,-0.003553,-0.002714,0.999990
05159,2,0,-74.0000,9.535863,0.346618,-2.377422,-0.024678,0.030051,0.021104,-0.019829,-0.002136,-0.006713,-0.411163,-0.498327,-0.640147,0.095359,0.003461,-0.023774,1.000000,-0.000099,-0.000011,-0.000034,0.999998,0.001316,-0.001753,0.000369,0.150736,-0.200895,0.042020,0.999994,0.000733,0.003506,-0.000743,0.999996,0.002631,-0.003504,-0.002633,0.999990
05160,2,0,-74.0000,9.508769,0.342325,-2.356855,-0.010233,0.031891,-0.010263,-0.021297,-0.004336,-0.009679,-0.409286,-0.509172,-0.643392,0.095088,0.003416,-0.023567,1.000000,-0.000106,-0.000022,-0.000048,0.999998,0.001260,-0.001715,0.000259,0.144352,-0.196508,0.029476,0.999994,0.000514,0.003430,-0.000523,0.999997,0.002519,-0.003428,-0.002521,0.999991
05161,2,0,-74.0000,9.512731,0.357899,-2.376783,-0.030025,0.021101,-0.001067,-0.020057,-0.004528,-0.013241,-0.410919,-0.504099,-0.629128,0.095128,0.003570,-0.023766,1.000000,-0.000100,-0.000023,-0.000066,0.999998,0.001188,-0.001670,0.000152,0.136125,-0.191435,0.017223,0.999994,0.000301,0.003341,-0.000309,0.999997,0.002376,-0.003340,-0.002377,0.999992
05162,2,0,-74.0000,9.519791,0.305100,-2.353765,0.003108,0.070742,-0.001739,-0.017708,-0.004555,-0.014467,-0.417239,-0.502396,-0.631055,0.095199,0.003042,-0.023536,1.000000,-0.000089,-0.000023,-0.000072,0.999998,0.001114,-0.001627,0.000066,0.127633,-0.186474,0.007330,0.999995,0.000128,0.003255,-0.000135,0.999998,0.002228,-0.003254,-0.002228,0.999992
05163,2,0,-74.0000,9.515796,0.365675,-2.343287,0.003083,0.010803,-0.005805,-0.014837,-0.001989,-0.016820,-0.414848,-0.501361,-0.632416,0.095158,0.003647,-0.023432,1.000000,-0.000074,-0.000010,-0.000084,0.999998,0.001031,-0.001595,0.000000,0.118150,-0.182760,-0.000173,0.999995,-0.000003,0.003190,-0.000004,0.999998,0.002062,-0.003190,-0.002062,0.999993
05164,2,0,-74.0000,9.523136,0.385535,-2.328937,0.016022,-0.009774,-0.001350,-0.009359,-0.002996,-0.013423,-0.418588,-0.504040,-0.634240,0.095232,0.003848,-0.023288,1.000000,-0.000047,-0.000015,-0.000067,0.999998,0.000971,-0.001560,-0.000047,0.111243,-0.178791,-0.005539,0.999995,-0.000097,0.003120,0.000091,0.999998,0.001942,-0.003121,-0.001941,0.999993
05165,2,0,-74.0000,9.530977,0.342429,-2.359573,-0.003623,0.039071,0.011915,-0.011903,-0.004444,-0.014585,-0.418325,-0.498059,-0.632291,0.095311,0.003416,-0.023594,1.000000,-0.000060,-0.000022,-0.000073,0.999998,0.000904,-0.001518,-0.000096,0.103561,-0.173919,-0.011176,0.999995,-0.000195,0.003035,0.000190,0.999998,0.001807,-0.003036,-0.001807,0.999994
05166,2,0,-74.0000,9.531206,0.416640,-2.368038,-0.023655,-0.031395,0.017040,-0.005610,0.011054,-0.012576,-0.417662,-0.507537,-0.637244,0.095311,0.004160,-0.023686,1.000000,-0.000028,0.000055,-0.000063,0.999998,0.000840,-0.001553,-0.000123,0.096330,-0.177974,-0.014261,0.999995,-0.000249,0.003106,0.000244,0.999999,0.001681,-0.003107,-0.001681,0.999994
05167,2,0,-74.0000,9.505199,0.422315,-2.399748,-0.061998,-0.030340,-0.000390,-0.008710,0.012951,-0.013059,-0.412517,-0.501456,-0.643330,0.095051,0.004216,-0.024004,1.000000,-0.000044,0.000065,-0.000065,0.999998,0.000770,-0.001598,-0.000153,0.088294,-0.183087,-0.017691,0.999995,-0.000309,0.003195,0.000304,0.999999,0.001541,-0.003196,-0.001540,0.999994
05168,2,0,-75.0000,9.539701,0.374710,-2.395925,-0.043130,0.017202,0.030310,-0.005253,0.013090,-0.011948,-0.409068,-0.513663,-0.637403,0.095396,0.003741,-0.023966,1.000000,-0.000026,0.000065,-0.000060,0.999998,0.000709,-0.001644,-0.000179,0.081268,-0.188353,-0.020618,0.999995,-0.000360,0.003287,0.000355,0.999999,0.001418,-0.003288,-0.001417,0.999994
05169,2,0,-75.0000,9.520375,0.388615,-2.359473,-0.015892,-0.001290,0.003392,-0.008155,0.009607,-0.013741,-0.422117,-0.501061,-0.636117,0.095203,0.003879,-0.023599,1.000000,-0.000041,0.000048,-0.000069,0.999998,0.000639,-0.001670,-0.000225,0.073229,-0.191300,-0.025954,0.999994,-0.000453,0.003339,0.000449,0.999999,0.001278,-0.003339,-0.001277,0.999994
05170,2,0,-75.0000,9.535186,0.353593,-2.320900,0.030019,0.028014,0.007175,-0.012819,0.003721,-0.010848,-0.417488,-0.498468,-0.638799,0.095352,0.003529,-0.023211,1.000000,-0.000064,0.000019,-0.000054,0.999998,0.000581,-0.001670,-0.000291,0.066629,-0.191375,-0.033448,0.999994,-0.000584,0.003340,0.000580,0.999999,0.001163,-0.003341,-0.001161,0.999994
05171,2,0,-75.0000,9.546565,0.314478,-2.316858,0.043155,0.067101,0.015704,-0.012099,0.000937,-0.013284,-0.414185,-0.506102,-0.636613,0.095466,0.003137,-0.023169,1.000000,-0.000060,0.000005,-0.000066,0.999998,0.000514,-0.001655,-0.000334,0.059018,-0.189670,-0.038405,0.999994,-0.000670,0.003310,0.000667,0.999999,0.001030,-0.003311,-0.001028,0.999994
05172,2,0,-75.0000,9.534975,0.283903,-2.311932,0.050564,0.097726,0.002060,-0.004658,-0.003045,-0.015880,-0.413501,-0.503418,-0.640815,0.095350,0.002831,-0.023118,1.000000,-0.000023,-0.000015,-0.000079,0.999999,0.000448,-0.001618,-0.000356,0.051421,-0.185447,-0.040824,0.999995,-0.000713,0.003237,0.000710,0.999999,0.000897,-0.003237,-0.000895,0.999994
05173,2,0,-75.0000,9.550569,0.404610,-2.345618,0.003292,-0.014174,0.030015,-0.000153,-0.004570,-0.020716,-0.415164,-0.504058,-0.644927,0.095507,0.004036,-0.023454,1.000000,-0.000001,-0.000023,-0.000104,0.999999,0.000366,-0.001569,-0.000349,0.041981,-0.179810,-0.040074,0.999995,-0.000699,0.003138,0.000697,0.999999,0.000733,-0.003139,-0.000731,0.999995
05174,2,0,-75.0000,9.519279,0.386532,-2.305906,0.037733,-0.001781,-0.010552,0.002294,-0.008706,-0.013208,-0.418910,-0.498341,-0.635417,0.095194,0.003859,-0.023055,1.000000,0.000011,-0.000044,-0.000066,0.999999,0.000325,-0.001507,-0.000341,0.037339,-0.172649,-0.039134,0.999995,-0.000683,0.003013,0.000681,1.000000,0.000652,-0.003014,-0.000650,0.999995
05175,2,0,-75.0000,9.504285,0.424297,-2.344637,-0.007838,-0.031574,-0.014334,0.001185,-0.008869,-0.015547,-0.415651,-0.502605,-0.635738,0.095044,0.004236,-0.023442,1.000000,0.000006,-0.000044,-0.000078,0.999999,0.000272,-0.001441,-0.000326,0.031234,-0.165118,-0.037433,0.999996,-0.000653,0.002882,0.000652,1.000000,0.000545,-0.002882,-0.000543,0.999996
05176,2,0,-76.0000,9.519467,0.399058,-2.361393,-0.014698,-0.003043,0.003394,0.001773,-0.011300,-0.012084,-0.415599,-0.505575,-0.635499,0.095196,0.003985,-0.023609,1.000000,0.000009,-0.000056,-0.000060,0.999999,0.000238,-0.001367,-0.000323,0.027377,-0.156598,-0.036999,0.999996,-0.000646,0.002733,0.000644,1.000000,0.000478,-0.002733,-0.000476,0.999996
05177,2,0,-76.0000,9.534605,0.373572,-2.378386,-0.021555,0.025470,0.021124,-0.001096,-0.013869,-0.009735,-0.409934,-0.509807,-0.637436,0.095348,0.003731,-0.023777,1.000000,-0.000005,-0.000069,-0.000049,0.999999,0.000216,-0.001282,-0.000331,0.024751,-0.146850,-0.037949,0.999996,-0.000662,0.002563,0.000661,1.000000,0.000432,-0.002563,-0.000430,0.999997
05178,2,0,-76.0000,9.511457,0.455618,-2.387082,-0.047350,-0.053440,0.004057,0.000695,-0.010549,-0.010280,-0.414667,-0.501002,-0.634980,0.095116,0.004551,-0.023866,1.000000,0.000003,-0.000053,-0.000051,0.999999,0.000189,-0.001212,-0.000334,0.021663,-0.138928,-0.038347,0.999997,-0.000669,0.002425,0.000668,1.000000,0.000378,-0.002425,-0.000376,0.999997
05179,2,0,-76.0000,9.503703,0.365966,-2.393683,-0.039709,0.036832,-0.005492,-0.006617,-0.006924,-0.013584,-0.406889,-0.503667,-0.626622,0.095038,0.003652,-0.023934,1.000000,-0.000033,-0.000035,-0.000068,0.999999,0.000135,-0.001158,-0.000371,0.015525,-0.132668,-0.042512,0.999997,-0.000742,0.002315,0.000741,1.000000,0.000271,-0.002316,-0.000269,0.999997
05180,2,0,-76.0000,9.526415,0.359191,-2.395439,-0.033800,0.045030,0.016685,-0.009556,-0.004469,-0.015823,-0.410603,-0.500012,-0.636763,0.095265,0.003583,-0.023952,1.000000,-0.000048,-0.000022,-0.000079,0.999999,0.000064,-0.001114,-0.000416,0.007407,-0.127648,-0.047696,0.999997,-0.000832,0.002228,0.000832,1.000000,0.000129,-0.002228,-0.000127,0.999998
05181,2,0,-76.0000,9.544413,0.328487,-2.323771,0.044903,0.064510,0.015713,-0.009362,-0.002995,-0.013436,-0.411463,-0.505584,-0.631257,0.095445,0.003277,-0.023236,1.000000,-0.000047,-0.000015,-0.000067,0.999999,0.000005,-0.001079,-0.000468,0.000603,-0.123617,-0.053638,0.999997,-0.000936,0.002158,0.000936,1.000000,0.000011,-0.002158,-0.000009,0.999998
05182,2,0,-76.0000,9.536965,0.384649,-2.347155,0.012078,0.014385,0.016373,-0.007410,0.000886,-0.015738,-0.413334,-0.506433,-0.647153,0.095370,0.003838,-0.023472,1.000000,-0.000037,0.000004,-0.000079,0.999999,-0.000067,-0.001061,-0.000502,-0.007668,-0.121631,-0.057517,0.999997,-0.001004,0.002123,0.001004,0.999999,-0.000134,-0.002123,0.000136,0.999998
05183,2,0,-76.0000,9.559851,0.377820,-2.348231,0.018005,0.022563,0.038549,0.000940,0.002453,-0.014687,-0.416083,-0.507060,-0.637392,0.095598,0.003771,-0.023483,1.000000,0.000005,0.000012,-0.000073,0.999999,-0.000125,-0.001052,-0.000499,-0.014261,-0.120538,-0.057124,0.999997,-0.000997,0.002104,0.000998,0.999999,-0.000249,-0.002104,0.000251,0.999998
05184,2,0,-76.0000,9.506632,0.450360,-2.368901,-0.026312,-0.044448,-0.005144,-0.000656,0.000607,-0.011755,-0.409925,-0.506837,-0.637438,0.095067,0.004498,-0.023689,1.000000,-0.000003,0.000003,-0.000059,0.999999,-0.000170,-0.001036,-0.000505,-0.019383,-0.118775,-0.057810,0.999997,-0.001009,0.002073,0.001010,0.999999,-0.000338,-0.002073,0.000340,0.999998
05185,2,0,-76.0000,9.499197,0.360609,-2.374581,-0.018654,0.045819,-0.014679,-0.003920,0.001939,-0.010481,-0.418621,-0.506093,-0.642038,0.094992,0.003601,-0.023747,1.000000,-0.000020,0.000010,-0.000052,0.999999,-0.000212,-0.001028,-0.000529,-0.024244,-0.117840,-0.060620,0.999997,-0.001058,0.002057,0.001059,0.999999,-0.000423,-0.002056,0.000425,0.999998
05186,2,0,-76.0000,9.514754,0.407898,-2.398776,-0.045743,0.004144,0.008154,-0.004480,0.005283,-0.009800,-0.414360,-0.504258,-0.640598,0.095147,0.004074,-0.023990,1.000000,-0.000022,0.000026,-0.000049,0.999999,-0.000256,-0.001038,-0.000555,-0.029263,-0.118908,-0.063590,0.999997,-0.001110,0.002075,0.001111,0.999999,-0.000511,-0.002075,0.000513,0.999998
05187,2,0,-76.0000,9.537080,0.390318,-2.345750,0.012948,0.013077,0.016374,0.000282,0.007061,-0.003958,-0.417964,-0.502437,-0.634901,0.095370,0.003901,-0.023461,1.000000,0.000001,0.000035,-0.000020,0.999999,-0.000267,-0.001060,-0.000559,-0.030535,-0.121500,-0.063998,0.999997,-0.001117,0.002121,0.001118,0.999999,-0.000533,-0.002120,0.000535,0.999998
05188,2,0,-76.0000,9.522533,0.354550,-2.373770,-0.012397,0.053501,0.007501,0.000920,0.016157,-0.007286,-0.415207,-0.503213,-0.642650,0.095224,0.003542,-0.023745,1.000000,0.000005,0.000081,-0.000036,0.999999,-0.000301,-0.001125,-0.000559,-0.034435,-0.128950,-0.064057,0.999997,-0.001118,0.002251,0.001119,0.999999,-0.000601,-0.002250,0.000604,0.999997
05189,2,0,-75.0000,9.522104,0.418288,-2.327503,0.020295,-0.016214,-0.001366,-0.004359,0.011783,-0.012004,-0.408014,-0.506519,-0.634144,0.095220,0.004177,-0.023281,1.000000,-0.000022,0.000059,-0.000060,0.999999,-0.000360,-0.001165,-0.000572,-0.041202,-0.133471,-0.065538,0.999997,-0.001144,0.002329,0.001146,0.999999,-0.000719,-0.002329,0.000722,0.999997
05190,2,0,-75.0000,9.549349,0.352266,-2.338311,0.026452,0.051633,0.024918,0.000563,0.014123,-0.007919,-0.414748,-0.509149,-0.634707,0.095492,0.003519,-0.023390,1.000000,0.000003,0.000071,-0.000040,0.999999,-0.000396,-0.001219,-0.000574,-0.045309,-0.139712,-0.065755,0.999996,-0.001148,0.002438,0.001150,0.999999,-0.000791,-0.002438,0.000794,0.999997
05191,2,0,-75.0000,9.523365,0.357300,-2.370016,-0.011883,0.052702,0.007506,0.003472,0.010758,-0.009825,-0.417703,-0.497223,-0.639500,0.095233,0.003569,-0.023705,1.000000,0.000017,0.000054,-0.000049,0.999999,-0.000433,-0.001255,-0.000566,-0.049528,-0.143830,-0.064766,0.999996,-0.001130,0.002510,0.001133,0.999999,-0.000864,-0.002509,0.000867,0.999996
05192,2,0,-75.0000,9.527653,0.372154,-2.388526,-0.031723,0.041909,0.016705,0.004743,0.011484,-0.009244,-0.418776,-0.499703,-0.631926,0.095275,0.003718,-0.023891,1.000000,0.000024,0.000057,-0.000046,0.999999,-0.000468,-0.001295,-0.000546,-0.053534,-0.148451,-0.062541,0.999996,-0.001092,0.002591,0.001094,0.999999,-0.000934,-0.002590,0.000937,0.999996
05193,2,0,-75.0000,9.519788,0.417516,-2.356904,-0.011805,-0.007464,0.003395,0.007802,0.015531,-0.009207,-0.419597,-0.502151,-0.634488,0.095196,0.004172,-0.023576,1.000000,0.000039,0.000078,-0.000046,0.999999,-0.000502,-0.001356,-0.000496,-0.057454,-0.155412,-0.056794,0.999996,-0.000991,0.002712,0.000994,0.999999,-0.001003,-0.002711,0.001005,0.999996
05194,2,0,-74.0000,9.512688,0.400126,-2.370216,-0.024392,0.012626,-0.001036,0.007092,0.011462,-0.010470,-0.413244,-0.499639,-0.632318,0.095126,0.003997,-0.023707,1.000000,0.000035,0.000057,-0.000052,0.999999,-0.000540,-0.001395,-0.000464,-0.061804,-0.159901,-0.053094,0.999996,-0.000927,0.002791,0.000930,0.999999,-0.001079,-0.002790,0.001081,0.999996
05195,2,0,-74.0000,9.558045,0.446990,-2.326326,0.019777,-0.040231,0.034434,0.007239,0.018876,-0.008529,-0.414060,-0.501324,-0.634378,0.095578,0.004467,-0.023272,1.000000,0.000036,0.000094,-0.000043,0.999999,-0.000574,-0.001473,-0.000423,-0.065653,-0.168813,-0.048330,0.999995,-0.000844,0.002946,0.000847,0.999999,-0.001146,-0.002945,0.001148,0.999995
05196,2,0,-74.0000,9.543852,0.338504,-2.344550,0.014700,0.070399,0.020493,0.021511,0.027071,-0.009790,-0.420044,-0.510698,-0.633367,0.095436,0.003383,-0.023458,1.000000,0.000108,0.000135,-0.000049,0.999999,-0.000603,-0.001590,-0.000318,-0.069082,-0.182175,-0.036336,0.999995,-0.000634,0.003180,0.000638,0.999999,-0.001206,-0.003179,0.001208,0.999994
05197,2,0,-74.0000,9.548474,0.425621,-2.370374,-0.025414,-0.010629,0.034770,0.016811,0.027117,-0.007345,-0.416367,-0.496742,-0.634550,0.095482,0.004255,-0.023716,1.000000,0.000084,0.000136,-0.000037,0.999998,-0.000625,-0.001709,-0.000234,-0.071624,-0.195859,-0.026643,0.999994,-0.000465,0.003418,0.000469,0.999999,-0.001250,-0.003418,0.001252,0.999993
05198,2,0,-74.0000,9.490968,0.400384,-2.307027,0.023275,0.003871,-0.037178,0.015776,0.021926,-0.005093,-0.411369,-0.507237,-0.640851,0.094907,0.004003,-0.023080,1.000000,0.000079,0.000110,-0.000025,0.999998,-0.000636,-0.001804,-0.000164,-0.072800,-0.206768,-0.018609,0.999993,-0.000325,0.003609,0.000329,0.999999,-0.001271,-0.003608,0.001272,0.999993
05199,2,0,-74.0000,9.511040,0.388236,-2.340520,-0.003552,0.021849,-0.010231,0.013960,0.017691,-0.008696,-0.419678,-0.503041,-0.644289,0.095109,0.003880,-0.023413,1.000000,0.000070,0.000088,-0.000043,0.999998,-0.000661,-0.001875,-0.000098,-0.075765,-0.214862,-0.011115,0.999993,-0.000194,0.003750,0.000199,0.999999,-0.001322,-0.003750,0.001323,0.999992
05200,2,0,-73.0000,9.481967,0.316193,-2.397329,-0.054387,0.102973,-0.027939,0.017951,0.013578,-0.012405,-0.416779,-0.497423,-0.634697,0.094818,0.003158,-0.023979,1.000000,0.000090,0.000068,-0.000062,0.999998,-0.000697,-0.001923,-0.000011,-0.079873,-0.220351,-0.001062,0.999993,-0.000019,0.003846,0.000024,0.999999,-0.001394,-0.003846,0.001394,0.999992
05201,2,0,-74.0000,9.545159,0.403784,-2.290390,0.048051,-0.000370,0.011603,0.019193,0.013392,-0.015972,-0.409715,-0.509567,-0.636736,0.095450,0.004032,-0.022910,1.000000,0.000096,0.000067,-0.000080,0.999998,-0.000748,-0.001967,0.000097,-0.085757,-0.225359,0.011241,0.999992,0.000196,0.003933,-0.000190,0.999999,-0.001497,-0.003934,0.001496,0.999991
05202,2,0,-74.0000,9.496227,0.417402,-2.321210,0.003950,-0.007680,-0.027981,0.019403,0.008013,-0.017280,-0.412701,-0.504022,-0.640262,0.094962,0.004168,-0.023215,1.000000,0.000097,0.000040,-0.000086,0.999998,-0.000801,-0.001983,0.000196,-0.091820,-0.227233,0.022640,0.999992,0.000395,0.003966,-0.000389,0.999999,-0.001603,-0.003967,0.001601,0.999991
05203,2,0,-74.0000,9.537898,0.460653,-2.312662,0.015383,-0.050752,0.012245,0.010425,-0.002662,-0.014996,-0.415915,-0.497673,-0.643226,0.095380,0.004601,-0.023125,1.000000,0.000052,-0.000013,-0.000075,0.999998,-0.000844,-0.001948,0.000237,-0.096747,-0.223162,0.027319,0.999992,0.000477,0.003895,-0.000470,0.999998,-0.001689,-0.003896,0.001687,0.999991
05204,2,0,-74.0000,9.499317,0.423849,-2.287376,0.037064,-0.018014,-0.032755,0.008476,-0.006545,-0.012690,-0.423403,-0.498645,-0.630755,0.094994,0.004233,-0.022870,1.000000,0.000042,-0.000033,-0.000063,0.999998,-0.000876,-0.001896,0.000275,-0.100451,-0.217263,0.031658,0.999993,0.000553,0.003792,-0.000546,0.999998,-0.001753,-0.003793,0.001751,0.999991
05205,2,0,-74.0000,9.488495,0.402623,-2.336768,-0.008280,0.011889,-0.032405,0.008285,-0.008020,-0.015079,-0.418858,-0.506097,-0.649029,0.094886,0.004020,-0.023364,1.000000,0.000041,-0.000040,-0.000075,0.999998,-0.000919,-0.001836,0.000327,-0.105344,-0.210328,0.037702,0.999993,0.000658,0.003671,-0.000651,0.999998,-0.001839,-0.003672,0.001836,0.999992
05206,2,0,-74.0000,9.507778,0.463895,-2.381783,-0.055396,-0.040319,-0.000387,0.005610,-0.009120,-0.010337,-0.412474,-0.505184,-0.637549,0.095079,0.004635,-0.023813,1.000000,0.000028,-0.000046,-0.000052,0.999998,-0.000941,-0.001774,0.000348,-0.107914,-0.203203,0.040059,0.999993,0.000699,0.003547,-0.000692,0.999998,-0.001883,-0.003548,0.001881,0.999992
05207,2,0,-74.0000,9.460839,0.471476,-2.326705,-0.013959,-0.056705,-0.058719,0.000559,-0.011114,-0.008517,-0.413616,-0.502655,-0.640786,0.094610,0.004711,-0.023262,1.000000,0.000003,-0.000056,-0.000043,0.999998,-0.000959,-0.001702,0.000340,-0.109954,-0.195011,0.039117,0.999994,0.000683,0.003404,-0.000676,0.999998,-0.001919,-0.003405,0.001917,0.999992
05208,2,0,-74.0000,9.522036,0.429193,-2.345700,-0.009265,-0.011328,0.003394,0.002343,-0.007790,-0.009066,-0.413557,-0.497918,-0.639793,0.095221,0.004288,-0.023453,1.000000,0.000012,-0.000039,-0.000045,0.999998,-0.000980,-0.001648,0.000343,-0.112404,-0.188763,0.039515,0.999994,0.000690,0.003295,-0.000683,0.999998,-0.001962,-0.003296,0.001960,0.999993
05209,2,0,-74.0000,9.510434,0.397756,-2.341386,-0.001811,0.019306,-0.010225,0.003613,-0.007063,-0.008485,-0.418202,-0.503159,-0.635344,0.095105,0.003974,-0.023410,1.000000,0.000018,-0.000035,-0.000042,0.999998,-0.000998,-0.001596,0.000352,-0.114438,-0.182856,0.040481,0.999995,0.000707,0.003191,-0.000700,0.999998,-0.001997,-0.003193,0.001995,0.999993
05210,2,0,-74.0000,9.529074,0.376104,-2.323842,0.024127,0.038015,0.002756,0.007634,-0.010259,-0.008046,-0.414982,-0.503291,-0.637670,0.095292,0.003758,-0.023233,1.000000,0.000038,-0.000051,-0.000040,0.999998,-0.001006,-0.001530,0.000379,-0.115365,-0.175305,0.043615,0.999995,0.000761,0.003060,-0.000755,0.999998,-0.002013,-0.003061,0.002011,0.999993
05211,2,0,-74.0000,9.505833,0.384898,-2.323841,0.018535,0.029317,-0.019423,0.005687,-0.014143,-0.005739,-0.417719,-0.501674,-0.633452,0.095060,0.003847,-0.023232,1.000000,0.000028,-0.000071,-0.000029,0.999998,-0.001001,-0.001447,0.000397,-0.114806,-0.165785,0.045693,0.999995,0.000797,0.002893,-0.000792,0.999998,-0.002004,-0.002895,0.002001,0.999994
05212,2,0,-74.0000,9.547147,0.427395,-2.316836,0.029939,-0.013746,0.020792,0.002420,-0.012815,-0.004466,-0.416251,-0.503323,-0.631557,0.095473,0.004272,-0.023162,1.000000,0.000012,-0.000064,-0.000022,0.999998,-0.000997,-0.001372,0.000395,-0.114257,-0.157141,0.045374,0.999996,0.000792,0.002743,-0.000786,0.999998,-0.001994,-0.002744,0.001992,0.999994
05213,2,0,-75.0000,9.509166,0.399665,-2.346207,-0.001154,0.018248,-0.010223,0.008438,-0.018066,-0.005884,-0.416758,-0.499517,-0.643265,0.095094,0.003995,-0.023453,1.000000,0.000042,-0.000090,-0.000029,0.999999,-0.000985,-0.001270,0.000428,-0.112971,-0.145456,0.049178,0.999996,0.000858,0.002539,-0.000853,0.999998,-0.001972,-0.002540,0.001970,0.999995
05214,2,0,-75.0000,9.531708,0.391865,-2.348900,0.004776,0.026418,0.011957,0.001312,-0.012981,-0.006808,-0.420940,-0.503754,-0.636667,0.095319,0.003916,-0.023483,1.000000,0.000007,-0.000065,-0.000034,0.999999,-0.000993,-0.001192,0.000423,-0.113844,-0.136494,0.048563,0.999997,0.000848,0.002382,-0.000843,0.999998,-0.001987,-0.002384,0.001985,0.999995
05215,2,0,-75.0000,9.508397,0.400745,-2.349134,-0.000819,0.017738,-0.010222,0.004063,-0.016905,-0.006953,-0.416162,-0.500284,-0.647445,0.095086,0.004005,-0.023483,1.000000,0.000020,-0.000085,-0.000035,0.999999,-0.000994,-0.001094,0.000439,-0.114004,-0.125298,0.050472,0.999997,0.000881,0.002187,-0.000877,0.999998,-0.001990,-0.002189,0.001988,0.999996
05216,2,0,-75.0000,9.538250,0.411098,-2.337428,0.017854,0.005555,0.016373,0.005171,-0.016737,-0.004614,-0.415302,-0.497954,-0.641618,0.095385,0.004109,-0.023366,1.000000,0.000026,-0.000084,-0.000023,0.999999,-0.000984,-0.000999,0.000449,-0.112787,-0.114422,0.051605,0.999998,0.000901,0.001997,-0.000897,0.999998,-0.001968,-0.001999,0.001967,0.999996
05217,2,0,-75.0000,9.518961,0.433676,-2.357327,-0.007734,-0.013633,0.003393,0.005523,-0.014701,-0.003986,-0.408108,-0.504558,-0.640920,0.095191,0.004336,-0.023566,1.000000,0.000028,-0.000074,-0.000020,0.999999,-0.000972,-0.000914,0.000465,-0.111458,-0.104629,0.053432,0.999998,0.000933,0.001826,-0.000929,0.999998,-0.001945,-0.001828,0.001944,0.999996
05218,2,0,-75.0000,9.530179,0.393443,-2.354834,0.005470,0.025420,0.011959,0.004606,-0.013393,-0.003938,-0.414025,-0.500407,-0.641941,0.095303,0.003933,-0.023542,1.000000,0.000023,-0.000067,-0.000020,0.999999,-0.000962,-0.000836,0.000473,-0.110261,-0.095707,0.054240,0.999998,0.000947,0.001670,-0.000943,0.999998,-0.001924,-0.001672,0.001923,0.999997
05219,2,0,-76.0000,9.518292,0.434127,-2.359943,-0.007374,-0.014139,0.003392,0.003527,-0.012645,-0.002130,-0.421008,-0.509299,-0.645212,0.095184,0.004341,-0.023593,1.000000,0.000018,-0.000063,-0.000011,0.999999,-0.000944,-0.000762,0.000466,-0.108269,-0.087225,0.053532,0.999998,0.000934,0.001522,-0.000931,0.999998,-0.001890,-0.001524,0.001888,0.999997
05220,2,0,-76.0000,9.483730,0.410379,-2.354693,-0.005700,0.008079,-0.032399,0.003124,-0.008741,-0.003213,-0.421406,-0.502233,-0.643600,0.094838,0.004103,-0.023543,1.000000,0.000016,-0.000044,-0.000016,0.999999,-0.000936,-0.000707,0.000466,-0.107313,-0.081002,0.053531,0.999999,0.000934,0.001414,-0.000932,0.999998,-0.001873,-0.001415,0.001872,0.999997
05221,2,0,-76.0000,9.529329,0.394114,-2.358161,0.005999,0.024650,0.011961,0.002418,-0.012812,-0.004472,-0.413478,-0.496715,-0.640317,0.095295,0.003939,-0.023575,1.000000,0.000012,-0.000064,-0.000022,0.999999,-0.000931,-0.000632,0.000475,-0.106700,-0.072369,0.054470,0.999999,0.000951,0.001263,-0.000948,0.999998,-0.001862,-0.001265,0.001861,0.999997
05222,2,0,-76.0000,9.502111,0.388515,-2.338415,0.020412,0.026514,-0.019418,0.006420,-0.009153,-0.000341,-0.422722,-0.504036,-0.644526,0.095022,0.003886,-0.023380,1.000000,0.000032,-0.000046,-0.000002,0.999999,-0.000904,-0.000578,0.000487,-0.103673,-0.066186,0.055894,0.999999,0.000976,0.001155,-0.000973,0.999998,-0.001809,-0.001157,0.001808,0.999998
05223,2,0,-76.0000,9.494306,0.442955,-2.362857,-0.012471,-0.023566,-0.018789,0.008415,-0.011208,-0.002199,-0.412285,-0.493104,-0.638100,0.094944,0.004429,-0.023623,1.000000,0.000042,-0.000056,-0.000011,0.999999,-0.000883,-0.000512,0.000521,-0.101207,-0.058631,0.059750,0.999999,0.001043,0.001023,-0.001041,0.999998,-0.001766,-0.001025,0.001765,0.999998
05224,2,0,-76.0000,9.535874,0.412279,-2.346896,0.019245,0.003543,0.016372,0.006823,-0.013055,0.000739,-0.415481,-0.502691,-0.643084,0.095360,0.004124,-0.023463,1.000000,0.000034,-0.000065,0.000004,0.999999,-0.000848,-0.000440,0.000533,-0.097168,-0.050348,0.061154,0.999999,0.001067,0.000879,-0.001066,0.999998,-0.001696,-0.000881,0.001695,0.999998
05225,2,0,-76.0000,9.516632,0.434292,-2.366597,-0.006355,-0.015645,0.003391,0.005393,-0.014343,0.001918,-0.410011,-0.500411,-0.632128,0.095168,0.004344,-0.023659,1.000000,0.000027,-0.000072,0.000010,0.999999,-0.000808,-0.000361,0.000541,-0.092606,-0.041363,0.062008,0.999999,0.001082,0.000722,-0.001081,0.999998,-0.001616,-0.000724,0.001615,0.999998
05226,2,0,-76.0000,9.516308,0.433857,-2.367979,-0.006188,-0.015896,0.003391,0.006502,-0.014174,0.004257,-0.407167,-0.499948,-0.645439,0.095165,0.004341,-0.023673,1.000000,0.000033,-0.000071,0.000021,1.000000,-0.000755,-0.000287,0.000547,-0.086580,-0.032785,0.062720,0.999999,0.001095,0.000572,-0.001094,0.999998,-0.001511,-0.000574,0.001510,0.999999
05227,2,0,-77.0000,9.543141,0.366496,-2.381211,0.000090,0.051918,0.029738,0.003205,-0.013763,0.001385,-0.408989,-0.501138,-0.633646,0.095433,0.003666,-0.023805,1.000000,0.000016,-0.000069,0.000007,1.000000,-0.000721,-0.000210,0.000533,-0.082605,-0.024012,0.061150,0.999999,0.001067,0.000419,-0.001067,0.999998,-0.001442,-0.000421,0.001441,0.999999
05228,2,0,-77.0000,9.496966,0.382893,-2.380008,-0.011284,0.034844,-0.014623,0.004635,-0.012475,0.000205,-0.421956,-0.496088,-0.640942,0.094971,0.003830,-0.023794,1.000000,0.000023,-0.000062,0.000001,1.000000,-0.000691,-0.000140,0.000536,-0.079218,-0.016007,0.061428,0.999999,0.001072,0.000279,-0.001072,0.999998,-0.001383,-0.000281,0.001382,0.999999
05229,2,0,-77.0000,9.511383,0.419015,-2.352255,0.014353,-0.006129,-0.005811,0.004315,-0.013594,0.003724,-0.417117,-0.502401,-0.636626,0.095115,0.004192,-0.023516,1.000000,0.000022,-0.000068,0.000019,1.000000,-0.000644,-0.000068,0.000540,-0.073809,-0.007710,0.061941,0.999999,0.001081,0.000135,-0.001081,0.999999,-0.001288,-0.000136,0.001288,0.999999
05230,2,0,-77.0000,9.533980,0.410465,-2.354896,0.020292,0.002030,0.016370,-0.005302,-0.015906,0.002103,-0.410841,-0.509844,-0.635948,0.095342,0.004105,-0.023541,1.000000,-0.000027,-0.000080,0.000011,1.000000,-0.000615,0.000018,0.000492,-0.070461,0.002045,0.056355,1.000000,0.000984,-0.000036,-0.000984,0.999999,-0.001230,0.000034,0.001230,0.999999
05231,2,0,-77.0000,9.530233,0.406048,-2.390552,-0.012289,0.011576,0.021166,-0.003274,-0.017044,0.004391,-0.413573,-0.502419,-0.646841,0.095304,0.004062,-0.023897,1.000000,-0.000016,-0.000085,0.000022,1.000000,-0.000570,0.000106,0.000450,-0.065266,0.012216,0.051561,1.000000,0.000900,-0.000213,-0.000900,0.999999,-0.001139,0.000212,0.001139,0.999999
05232,2,0,-78.0000,9.503503,0.409769,-2.425145,-0.050642,0.012751,0.003783,-0.001441,-0.019659,0.004290,-0.404287,-0.499957,-0.646168,0.095037,0.004100,-0.024242,1.000000,-0.000007,-0.000098,0.000021,1.000000,-0.000522,0.000208,0.000417,-0.059830,0.023882,0.047727,1.000000,0.000833,-0.000417,-0.000833,0.999999,-0.001044,0.000416,0.001045,0.999999
05233,2,0,-78.0000,9.507300,0.350684,-2.437437,-0.050107,0.072174,0.007960,-0.002921,-0.015008,0.005019,-0.416839,-0.500716,-0.636697,0.095075,0.003509,-0.024367,1.000000,-0.000015,-0.000075,0.000025,1.000000,-0.000478,0.000289,0.000369,-0.054730,0.033092,0.042272,1.000000,0.000738,-0.000578,-0.000738,0.999999,-0.000955,0.000577,0.000956,0.999999
05234,2,0,-78.0000,9.529113,0.404926,-2.395204,-0.011743,0.010841,0.021168,0.001209,-0.011706,0.003238,-0.408963,-0.505352,-0.633653,0.095292,0.004051,-0.023946,1.000000,0.000006,-0.000059,0.000016,1.000000,-0.000439,0.000352,0.000351,-0.050236,0.040370,0.040250,1.000000,0.000703,-0.000705,-0.000703,0.999999,-0.000877,0.000704,0.000877,0.999999
05235,2,0,-78.0000,9.490367,0.439453,-2.379281,-0.010399,-0.026609,-0.018794,0.001369,-0.011146,0.001478,-0.414875,-0.497196,-0.645504,0.094905,0.004395,-0.023787,1.000000,0.000007,-0.000056,0.000007,1.000000,-0.000407,0.000414,0.000339,-0.046582,0.047492,0.038812,0.999999,0.000677,-0.000829,-0.000678,0.999999,-0.000813,0.000828,0.000814,0.999999
05236,2,0,-78.0000,9.528004,0.394738,-2.343651,0.041352,0.011001,0.007167,-0.006783,-0.011254,0.002830,-0.404700,-0.499144,-0.634227,0.095281,0.003948,-0.023431,1.000000,-0.000034,-0.000056,0.000014,1.000000,-0.000380,0.000476,0.000283,-0.043482,0.054550,0.032419,0.999999,0.000566,-0.000952,-0.000567,1.000000,-0.000759,0.000952,0.000759,0.999999
05237,2,0,-78.0000,9.520317,0.376524,-2.359394,0.028812,0.031119,0.002767,-0.005146,-0.015343,0.000338,-0.410880,-0.505711,-0.637952,0.095205,0.003765,-0.023587,1.000000,-0.000026,-0.000077,0.000002,1.000000,-0.000359,0.000561,0.000237,-0.041173,0.064283,0.027134,0.999999,0.000474,-0.001122,-0.000474,1.000000,-0.000719,0.001122,0.000719,0.999999
05238,2,0,-78.0000,9.520550,0.386231,-2.414472,-0.023780,0.030183,0.016771,0.000855,-0.013740,0.002605,-0.412920,-0.511520,-0.630889,0.095207,0.003864,-0.024138,1.000000,0.000004,-0.000069,0.000013,1.000000,-0.000322,0.000635,0.000218,-0.036889,0.072771,0.024956,0.999999,0.000436,-0.001270,-0.000436,1.000000,-0.000644,0.001270,0.000644,0.999999
05239,2,0,-78.0000,9.516235,0.372161,-2.396224,-0.003599,0.040410,0.007571,0.000818,-0.014655,-0.001545,-0.408595,-0.503154,-0.644826,0.095164,0.003721,-0.023955,1.000000,0.000004,-0.000073,-0.000008,1.000000,-0.000301,0.000717,0.000201,-0.034522,0.082151,0.022973,0.999999,0.000401,-0.001434,-0.000402,1.000000,-0.000603,0.001434,0.000603,0.999999
05240,2,0,-78.0000,9.523287,0.390551,-2.383030,0.009297,0.019795,0.011969,-0.002287,-0.012768,-0.002023,-0.415618,-0.497668,-0.635998,0.095234,0.003904,-0.023824,1.000000,-0.000011,-0.000064,-0.000010,1.000000,-0.000291,0.000790,0.000172,-0.033305,0.090533,0.019714,0.999999,0.000344,-0.001580,-0.000345,1.000000,-0.000581,0.001580,0.000582,0.999999
05241,2,0,-78.0000,9.507984,0.426976,-2.422186,-0.036336,-0.009902,0.008190,-0.004792,-0.013307,0.000967,-0.421124,-0.502305,-0.632339,0.095081,0.004270,-0.024216,1.000000,-0.000024,-0.000067,0.000005,1.000000,-0.000268,0.000864,0.000131,-0.030755,0.099003,0.015032,0.999998,0.000262,-0.001728,-0.000263,1.000000,-0.000537,0.001728,0.000537,0.999998
05242,2,0,-78.0000,9.549493,0.396531,-2.406616,-0.004590,0.017172,0.043354,-0.006773,-0.018104,-0.000875,-0.407997,-0.506447,-0.644222,0.095497,0.003964,-0.024058,1.000000,-0.000034,-0.000091,-0.000004,1.000000,-0.000254,0.000962,0.000079,-0.029050,0.110288,0.008997,0.999998,0.000157,-0.001925,-0.000158,1.000000,-0.000507,0.001925,0.000507,0.999998
05243,2,0,-78.0000,9.507504,0.354634,-2.415923,-0.015642,0.059754,0.003181,-0.000148,-0.007411,-0.001944,-0.409431,-0.499453,-0.636556,0.095076,0.003545,-0.024156,1.000000,-0.000001,-0.000037,-0.000010,0.999999,-0.000243,0.001009,0.000068,-0.027861,0.115617,0.007709,0.999998,0.000135,-0.002018,-0.000136,1.000000,-0.000486,0.002018,0.000487,0.999998
05244,2,0,-78.0000,9.492333,0.391418,-2.454419,-0.061288,0.030062,-0.000598,-0.012358,-0.005240,-0.005163,-0.412536,-0.499003,-0.638037,0.094924,0.003910,-0.024542,1.000000,-0.000062,-0.000026,-0.000026,0.999999,-0.000266,0.001048,-0.000004,-0.030491,0.120046,-0.000529,0.999998,-0.000009,-0.002095,0.000008,1.000000,-0.000532,0.002095,0.000532,0.999998
05245,2,0,-78.0000,9.518018,0.378335,-2.368365,0.030171,0.029036,0.002770,-0.010012,-0.005260,-0.006395,-0.414256,-0.502532,-0.640372,0.095181,0.003779,-0.023681,1.000000,-0.000050,-0.000026,-0.000032,0.999999,-0.000292,0.001088,-0.000060,-0.033431,0.124647,-0.006862,0.999998,-0.000120,-0.002175,0.000118,1.000000,-0.000583,0.002176,0.000583,0.999997
05246,2,0,-78.0000,9.521835,0.393034,-2.388416,0.010322,0.018264,0.011971,-0.011245,-0.005072,-0.002825,-0.408278,-0.498295,-0.639870,0.095219,0.003928,-0.023882,1.000000,-0.000056,-0.000025,-0.000014,0.999999,-0.000302,0.001124,-0.000129,-0.034641,0.128756,-0.014802,0.999997,-0.000258,-0.002247,0.000257,1.000000,-0.000605,0.002247,0.000604,0.999997
05247,2,0,-78.0000,9.529078,0.411790,-2.374424,0.023225,-0.002356,0.016363,-0.007983,-0.006398,-0.004109,-0.408678,-0.508363,-0.633473,0.095292,0.004115,-0.023741,1.000000,-0.000040,-0.000032,-0.000021,0.999999,-0.000314,0.001168,-0.000178,-0.035958,0.133806,-0.020409,0.999997,-0.000356,-0.002335,0.000355,1.000000,-0.000628,0.002336,0.000627,0.999997
05248,2,0,-78.0000,9.518103,0.389957,-2.423506,-0.022071,0.027610,0.016782,-0.007628,-0.004364,-0.003478,-0.413109,-0.501415,-0.644691,0.095182,0.003897,-0.024233,1.000000,-0.000038,-0.000022,-0.000017,0.999999,-0.000323,0.001201,-0.000229,-0.037080,0.137579,-0.026233,0.999997,-0.000458,-0.002401,0.000456,1.000000,-0.000647,0.002401,0.000646,0.999997
05249,2,0,-78.0000,9.525365,0.408565,-2.409453,-0.009173,0.006971,0.021174,-0.003253,-0.005523,-0.002422,-0.405389,-0.496056,-0.640097,0.095254,0.004084,-0.024092,1.000000,-0.000016,-0.000028,-0.000012,0.999999,-0.000321,0.001239,-0.000260,-0.036778,0.141951,-0.029833,0.999997,-0.000521,-0.002478,0.000519,1.000000,-0.000642,0.002478,0.000641,0.999997
05250,2,0,-78.0000,9.506457,0.358504,-2.419469,-0.014431,0.057980,0.003193,-0.003608,-0.007557,-0.003054,-0.408362,-0.499539,-0.640352,0.095066,0.003583,-0.024191,1.000000,-0.000018,-0.000038,-0.000015,0.999999,-0.000321,0.001287,-0.000292,-0.036801,0.147489,-0.033558,0.999997,-0.000586,-0.002574,0.000584,1.000000,-0.000642,0.002575,0.000641,0.999996
05251,2,0,-78.0000,9.517699,0.391139,-2.424901,-0.021533,0.026851,0.016786,0.001390,0.000374,-0.005330,-0.410601,-0.505520,-0.650111,0.095177,0.003909,-0.024249,1.000000,0.000007,0.000002,-0.000027,0.999999,-0.000333,0.001300,-0.000298,-0.038149,0.148914,-0.034224,0.999996,-0.000597,-0.002599,0.000596,1.000000,-0.000666,0.002599,0.000664,0.999996
05252,2,0,-78.0000,9.494734,0.399721,-2.423688,-0.027153,0.018208,-0.005397,0.001991,-0.002054,-0.001863,-0.408823,-0.498336,-0.643006,0.094948,0.003997,-0.024236,1.000000,0.000010,-0.000010,-0.000009,0.999999,-0.000325,0.001320,-0.000304,-0.037237,0.151230,-0.034873,0.999996,-0.000609,-0.002639,0.000607,1.000000,-0.000650,0.002640,0.000648,0.999996
05253,2,0,-78.0000,9.525000,0.409766,-2.410690,-0.008448,0.005991,0.021175,0.001991,-0.002054,-0.001863,-0.412680,-0.502823,-0.647067,0.095250,0.004097,-0.024106,1.000000,0.000010,-0.000010,-0.000009,0.999999,-0.000317,0.001342,-0.000310,-0.036391,0.153713,-0.035614,0.999996,-0.000622,-0.002683,0.000620,1.000000,-0.000635,0.002683,0.000633,0.999996
05254,2,0,-78.0000,9.505484,0.422581,-2.375345,0.018669,-0.012505,-0.005824,-0.000798,0.000953,-0.005858,-0.411795,-0.505425,-0.634699,0.095055,0.004223,-0.023754,1.000000,-0.000004,0.000005,-0.000029,0.999999,-0.000334,0.001350,-0.000324,-0.038341,0.154714,-0.037187,0.999996,-0.000649,-0.002700,0.000647,1.000000,-0.000669,0.002701,0.000667,0.999996
05255,2,0,-78.0000,9.510417,0.301572,-2.430860,-0.013154,0.116392,0.007412,0.004653,-0.000952,-0.006614,-0.401544,-0.505856,-0.634270,0.095104,0.003013,-0.024308,1.000000,0.000023,-0.000005,-0.000033,0.999999,-0.000346,0.001369,-0.000308,-0.039672,0.156900,-0.035312,0.999996,-0.000616,-0.002738,0.000614,1.000000,-0.000692,0.002739,0.000691,0.999996
05256,2,0,-79.0000,9.491161,0.397170,-2.458023,-0.059185,0.027067,-0.000576,0.013474,0.002312,-0.010858,-0.411952,-0.500934,-0.640451,0.094912,0.003968,-0.024581,1.000000,0.000067,0.000012,-0.000054,0.999999,-0.000370,0.001376,-0.000246,-0.042457,0.157618,-0.028232,0.999996,-0.000493,-0.002751,0.000491,1.000000,-0.000741,0.002751,0.000740,0.999996
05257,2,0,-78.0000,9.532591,0.357557,-2.387149,0.025357,0.054752,0.020571,0.007668,0.002183,-0.010734,-0.417094,-0.498631,-0.641165,0.095326,0.003571,-0.023872,1.000000,0.000038,0.000011,-0.000054,0.999999,-0.000400,0.001383,-0.000218,-0.045871,0.158486,-0.025039,0.999996,-0.000437,-0.002766,0.000435,1.000000,-0.000801,0.002766,0.000799,0.999996
05258,2,0,-78.0000,9.528904,0.426909,-2.429916,-0.027608,-0.005808,0.030379,0.006751,0.003490,-0.010683,-0.408406,-0.502346,-0.636563,0.095289,0.004265,-0.024301,1.000000,0.000034,0.000017,-0.000053,0.999999,-0.000433,0.001383,-0.000189,-0.049624,0.158519,-0.021690,0.999996,-0.000379,-0.002767,0.000376,1.000000,-0.000866,0.002767,0.000865,0.999996
05259,2,0,-78.0000,9.513397,0.454289,-2.413788,-0.020515,-0.034829,0.012578,0.004563,0.004069,-0.011211,-0.408058,-0.506083,-0.641688,0.095134,0.004538,-0.024140,1.000000,0.000023,0.000020,-0.000056,0.999999,-0.000471,0.001381,-0.000162,-0.053979,0.158282,-0.018655,0.999996,-0.000326,-0.002763,0.000323,1.000000,-0.000942,0.002763,0.000941,0.999996
05260,2,0,-78.0000,9.536694,0.374103,-2.405730,0.005845,0.043475,0.029777,0.010564,0.005675,-0.008945,-0.404265,-0.491451,-0.649951,0.095366,0.003738,-0.024060,1.000000,0.000053,0.000028,-0.000045,0.999999,-0.000492,0.001369,-0.000116,-0.056443,0.156917,-0.013376,0.999996,-0.000233,-0.002739,0.000231,0.999999,-0.000985,0.002739,0.000984,0.999996
05261,2,0,-78.0000,9.543887,0.465417,-2.399668,-0.001636,-0.047299,0.039143,0.017482,0.005974,-0.006732,-0.415650,-0.503327,-0.635235,0.095438,0.004653,-0.023999,1.000000,0.000087,0.000030,-0.000034,0.999999,-0.000496,0.001356,-0.000044,-0.056850,0.155399,-0.005100,0.999996,-0.000089,-0.002712,0.000086,1.000000,-0.000992,0.002712,0.000992,0.999996
05262,2,0,-78.0000,9.544792,0.402683,-2.444016,-0.033818,0.021965,0.048185,0.010091,0.003995,-0.003667,-0.420680,-0.506928,-0.640510,0.095448,0.004026,-0.024442,1.000000,0.000050,0.000020,-0.000018,0.999999,-0.000492,0.001348,-0.000007,-0.056336,0.154477,-0.000855,0.999996,-0.000015,-0.002696,0.000012,1.000000,-0.000983,0.002696,0.000983,0.999996
05263,2,0,-78.0000,9.552262,0.420927,-2.429149,-0.020956,0.001307,0.052566,0.009016,0.004742,-0.001856,-0.411937,-0.501937,-0.640707,0.095522,0.004209,-0.024294,1.000000,0.000045,0.000024,-0.000009,0.999999,-0.000479,0.001334,0.000035,-0.054875,0.152842,0.003976,0.999996,0.000069,-0.002668,-0.000072,1.000000,-0.000958,0.002668,0.000958,0.999996
05264,2,0,-78.0000,9.483841,0.373003,-2.415990,-0.017765,0.046070,-0.018968,0.012278,0.003417,-0.003140,-0.410194,-0.501538,-0.636111,0.094838,0.003730,-0.024161,1.000000,0.000061,0.000017,-0.000016,0.999999,-0.000469,0.001328,0.000082,-0.053709,0.152196,0.009350,0.999996,0.000163,-0.002656,-0.000166,1.000000,-0.000937,0.002656,0.000938,0.999996
05265,2,0,-79.0000,9.514227,0.383011,-2.402478,0.000919,0.033812,0.007597,0.010090,0.003996,-0.003668,-0.413852,-0.500448,-0.642237,0.095142,0.003830,-0.024026,1.000000,0.000050,0.000020,-0.000018,0.999999,-0.000464,0.001320,0.000121,-0.053111,0.151308,0.013836,0.999996,0.000241,-0.002641,-0.000244,1.000000,-0.000927,0.002641,0.000928,0.999996
05266,2,0,-79.0000,9.491375,0.391461,-2.400829,-0.004710,0.025180,-0.014588,0.010248,0.004556,-0.005429,-0.409614,-0.500579,-0.640539,0.094913,0.003913,-0.024010,1.000000,0.000051,0.000023,-0.000027,0.999999,-0.000468,0.001311,0.000161,-0.053593,0.150238,0.018425,0.999997,0.000322,-0.002622,-0.000324,1.000000,-0.000935,0.002622,0.000936,0.999996
05267,2,0,-79.0000,9.514383,0.383492,-2.401785,0.001267,0.033309,0.007598,0.013510,0.003231,-0.006713,-0.409668,-0.501978,-0.632719,0.095144,0.003833,-0.024019,1.000000,0.000068,0.000016,-0.000034,0.999999,-0.000473,0.001310,0.000222,-0.054174,0.150109,0.025370,0.999996,0.000443,-0.002620,-0.000445,0.999999,-0.000946,0.002619,0.000947,0.999996
05268,2,0,-79.0000,9.537356,0.375569,-2.402877,0.007234,0.041440,0.029785,0.016773,0.001907,-0.007998,-0.419019,-0.499748,-0.639923,0.095373,0.003754,-0.024029,1.000000,0.000084,0.000010,-0.000040,0.999999,-0.000479,0.001316,0.000296,-0.054889,0.150785,0.033876,0.999996,0.000591,-0.002632,-0.000594,0.999999,-0.000958,0.002631,0.000960,0.999996
05269,2,0,-79.0000,9.518372,0.398204,-2.421105,-0.018425,0.022278,0.016803,0.019118,0.001889,-0.009232,-0.413951,-0.492300,-0.643220,0.095184,0.003980,-0.024212,1.000000,0.000096,0.000009,-0.000046,0.999999,-0.000488,0.001322,0.000392,-0.055829,0.151546,0.044800,0.999996,0.000782,-0.002645,-0.000784,0.999999,-0.000974,0.002644,0.000976,0.999996
05270,2,0,-79.0000,9.491495,0.392809,-2.400133,-0.004035,0.024161,-0.014585,0.018960,0.001331,-0.007473,-0.415563,-0.501365,-0.641300,0.094915,0.003927,-0.024002,1.000000,0.000095,0.000007,-0.000037,0.999999,-0.000488,0.001331,0.000476,-0.055892,0.152498,0.054434,0.999996,0.000950,-0.002662,-0.000953,0.999999,-0.000975,0.002661,0.000978,0.999996
05271,2,0,-79.0000,9.518136,0.471327,-2.429691,-0.038505,-0.048373,0.021774,0.021289,0.008166,-0.005007,-0.416284,-0.501002,-0.641370,0.095180,0.004713,-0.024300,1.000000,0.000106,0.000041,-0.000025,0.999999,-0.000480,0.001303,0.000580,-0.054964,0.149393,0.066384,0.999996,0.001159,-0.002607,-0.001161,0.999999,-0.000959,0.002606,0.000962,0.999996
05272,2,0,-79.0000,9.518594,0.398675,-2.420156,-0.017914,0.021539,0.016806,0.020582,0.004096,-0.006268,-0.411928,-0.502932,-0.628873,0.095186,0.003986,-0.024203,1.000000,0.000103,0.000020,-0.000031,0.999999,-0.000476,0.001297,0.000671,-0.054394,0.148668,0.076820,0.999996,0.001341,-0.002595,-0.001343,0.999999,-0.000949,0.002593,0.000953,0.999996
05273,2,0,-79.0000,9.480173,0.433647,-2.402706,-0.016647,-0.015873,-0.023193,0.021250,0.007250,-0.009162,-0.415533,-0.503323,-0.628717,0.094801,0.004335,-0.024030,1.000000,0.000106,0.000036,-0.000046,0.999999,-0.000485,0.001277,0.000775,-0.055447,0.146392,0.088785,0.999996,0.001550,-0.002555,-0.001552,0.999998,-0.000968,0.002554,0.000972,0.999996
05274,2,0,-79.0000,9.527072,0.354345,-2.449300,-0.037201,0.070153,0.030251,0.024550,0.006845,-0.006298,-0.409162,-0.499657,-0.640402,0.095270,0.003543,-0.024496,1.000000,0.000123,0.000034,-0.000031,0.999999,-0.000477,0.001257,0.000886,-0.054587,0.144120,0.101495,0.999995,0.001771,-0.002515,-0.001774,0.999998,-0.000953,0.002514,0.000957,0.999996
05275,2,0,-79.0000,9.522404,0.403528,-2.384397,0.015311,0.010863,0.011976,0.028480,0.008675,-0.010478,-0.411262,-0.508400,-0.638611,0.095223,0.004034,-0.023848,1.000000,0.000142,0.000043,-0.000052,0.999999,-0.000485,0.001232,0.001024,-0.055471,0.141201,0.117311,0.999995,0.002047,-0.002464,-0.002050,0.999997,-0.000968,0.002462,0.000973,0.999996
05276,2,0,-79.0000,9.591179,0.451399,-2.396105,0.012455,-0.034422,0.083497,0.031196,0.018469,-0.003241,-0.416829,-0.497028,-0.643247,0.095910,0.004516,-0.023969,1.000000,0.000156,0.000092,-0.000016,0.999999,-0.000465,0.001152,0.001166,-0.053077,0.132073,0.133569,0.999995,0.002331,-0.002305,-0.002333,0.999997,-0.000926,0.002303,0.000932,0.999997
05277,2,0,-79.0000,9.548680,0.461930,-2.303722,0.086504,-0.060676,0.020249,0.037490,0.028057,-0.000815,-0.418208,-0.503922,-0.635847,0.095484,0.004623,-0.023050,1.000000,0.000187,0.000140,-0.000004,0.999998,-0.000431,0.001023,0.001340,-0.049277,0.117340,0.153541,0.999994,0.002680,-0.002048,-0.002682,0.999996,-0.000860,0.002046,0.000866,0.999998
05278,2,0,-79.0000,9.558163,0.426157,-2.384997,0.014311,-0.012421,0.047735,0.027310,0.029075,-0.001749,-0.411907,-0.503945,-0.641218,0.095578,0.004264,-0.023863,1.000000,0.000137,0.000145,-0.000009,0.999998,-0.000417,0.000890,0.001464,-0.047610,0.102074,0.167687,0.999994,0.002927,-0.001782,-0.002928,0.999995,-0.000831,0.001779,0.000836,0.999998
